"time_acc","acc_x","acc_y","acc_z","time_gyro","gyro_x","gyro_y","gyro_z"
8.868541569E-3,-1.265318756E0,-9.637259216E0,-1.150208130E0,1.260554139E-2,8.575167060E-1,3.453184366E-1,-7.358849794E-2
1.882854151E-2,-1.384470978E0,-9.372010803E0,-5.351371765E-1,2.256554179E-2,7.608308792E-1,3.973989487E-1,-3.808348440E-3
2.878954168E-2,-2.019450531E0,-9.368717651E0,-2.634521484E-2,3.252654150E-2,7.341775894E-1,3.682599664E-1,5.219558626E-2
3.875054140E-2,-1.968855743E0,-8.894054718E0,4.079017639E-1,4.248754168E-2,7.926576734E-1,2.343655527E-1,1.083014682E-1
4.871154157E-2,-2.296224976E0,-8.620723114E0,6.563850403E-1,5.244854139E-2,8.863231540E-1,3.414696082E-2,2.171372920E-1
5.867154151E-2,-2.453847198E0,-8.648565216E0,5.348377991E-1,6.240854179E-2,9.525170922E-1,-1.012287065E-1,3.133059144E-1
6.863254169E-2,-2.196083221E0,-8.719517670E0,3.055146790E-1,7.236954151E-2,8.773452640E-1,-1.131826639E-1,4.625512362E-1
7.859354140E-2,-2.087708588E0,-9.027726746E0,-2.639012146E-1,8.233054169E-2,7.350507379E-1,-1.251037885E-2,6.768057346E-1
8.855454158E-2,-1.655257874E0,-8.645421753E0,-5.089416504E-1,9.229154140E-2,5.986405611E-1,1.634392440E-1,7.890998721E-1
9.851454152E-2,-1.428180084E0,-8.455167389E0,-6.601272583E-1,1.022515418E-1,5.401164889E-1,3.048520088E-1,8.266685605E-1
1.084755417E-1,-1.745370483E0,-9.152716827E0,-8.029302979E-1,1.122125415E-1,5.272208452E-1,4.433202147E-1,8.463322520E-1
1.184365414E-1,-1.533411255E0,-9.742041321E0,-7.559280396E-1,1.221735417E-1,4.775209427E-1,5.694485903E-1,8.505296707E-1
1.283975416E-1,-1.357976074E0,-1.034872971E1,-7.122189331E-1,1.321345414E-1,4.182013869E-1,5.971504450E-1,8.335664272E-1
1.383575415E-1,-1.094074860E0,-1.071187454E1,-4.875361633E-1,1.420945418E-1,3.965565264E-1,5.556000471E-1,7.918767929E-1
1.483185417E-1,-8.915460205E-1,-1.081156723E1,-3.703298950E-1,1.520555415E-1,3.851198554E-1,4.612927735E-1,7.458769679E-1
1.582795414E-1,-6.024971008E-1,-1.079974182E1,-6.083349609E-1,1.620165417E-1,3.715803325E-1,3.769581914E-1,7.096337676E-1
1.682405416E-1,-4.138893127E-1,-1.100167191E1,-8.455915833E-1,1.719775414E-1,3.418123126E-1,3.452402353E-1,6.805405617E-1
1.782005415E-1,-3.356021118E-1,-1.111738129E1,-1.077309723E0,1.819375418E-1,3.628869653E-1,2.258962542E-1,6.429755688E-1
1.881615417E-1,-2.561174011E-1,-1.094853241E1,-1.235979767E0,1.918985415E-1,4.194717407E-1,6.190517172E-2,6.361074448E-1
1.981225414E-1,-3.791615295E-1,-1.053868469E1,-9.996212769E-1,2.018595417E-1,4.346560240E-1,1.803905368E-1,6.342414021E-1
2.080835416E-1,-1.116677856E-1,-1.040815613E1,-1.546883240E0,2.118205414E-1,2.343236655E-1,1.120330170E-1,5.633625388E-1
2.180435415E-1,1.839674377E-1,-1.073597443E1,-2.191592560E0,2.217805418E-1,7.783311605E-2,1.678059995E-1,5.333548188E-1
2.280045417E-1,1.347198486E-3,-1.058838135E1,-2.063459015E0,2.317415415E-1,-2.916892990E-2,3.585796356E-1,4.453654587E-1
2.379655414E-1,3.984713745E-1,-1.056443115E1,-2.161205750E0,2.417025417E-1,-9.972751141E-2,5.503839850E-1,3.648900688E-1
2.479265416E-1,3.391946411E-1,-1.079869400E1,-2.119143219E0,2.516635414E-1,-1.582180113E-1,6.385822296E-1,3.211074471E-1
2.578865415E-1,2.278262329E-1,-1.082653610E1,-2.002685394E0,2.616235418E-1,-1.935823858E-1,5.924720168E-1,2.934750021E-1
2.678475417E-1,2.523751831E-1,-1.051802765E1,-2.082918549E0,2.715845415E-1,-2.272036672E-1,4.706843495E-1,2.643073499E-1
2.778085414E-1,9.729766846E-2,-1.023227188E1,-2.111359406E0,2.815455417E-1,-2.805824578E-1,3.197188079E-1,2.612609565E-1
2.877695416E-1,1.951940918E-1,-1.014590149E1,-2.270628204E0,2.915065414E-1,-3.525979817E-1,2.080836743E-1,2.562426031E-1
2.977295415E-1,5.014572144E-1,-1.043090881E1,-2.308200073E0,3.014665414E-1,-3.765920103E-1,2.304169536E-1,2.238998562E-1
3.076905417E-1,7.708969116E-1,-1.053584061E1,-1.534010010E0,3.114275415E-1,-3.611018062E-1,2.706642449E-1,8.214979619E-2
3.176515414E-1,1.273401947E0,-1.086485641E1,-1.459015961E0,3.213885417E-1,-2.750095129E-1,3.443030417E-1,-8.846402168E-2
3.276125416E-1,8.578660583E-1,-1.117740646E1,-1.405726776E0,3.313495414E-1,-1.766072363E-1,5.264686346E-1,-2.369223535E-1
3.375725416E-1,3.281176758E-1,-1.126871658E1,-1.557062073E0,3.413095414E-1,-1.710755825E-1,7.005570531E-1,-3.631002903E-1
3.475335417E-1,-1.297801208E-1,-1.135957764E1,-1.969454498E0,3.512705415E-1,-3.133045137E-1,8.019638658E-1,-4.803832769E-1
3.574945414E-1,-6.008505249E-1,-1.115046249E1,-1.725761261E0,3.612315417E-1,-5.233389735E-1,8.139156103E-1,-5.903587341E-1
3.674555416E-1,-8.066725159E-1,-1.071441925E1,-1.128652954E0,3.711925414E-1,-7.455862761E-1,7.443324924E-1,-6.980838180E-1
3.774155416E-1,-7.674540710E-1,-1.044303360E1,-6.375242615E-1,3.811525414E-1,-9.501479268E-1,5.380267501E-1,-8.063868880E-1
3.873765417E-1,-6.471043396E-1,-1.025682083E1,-3.134481812E-1,3.911135416E-1,-1.100157976E0,2.087095380E-1,-9.380305409E-1
3.973375414E-1,-6.206094360E-1,-1.019155655E1,-1.317260742E-2,4.010745417E-1,-1.172147274E0,-1.627633572E-1,-1.095874786E0
4.072985416E-1,-9.779164124E-1,-1.026954437E1,1.428030396E-1,4.110355414E-1,-1.179377556E0,-4.751045704E-1,-1.186232924E0
4.172585416E-1,-2.069446564E0,-1.053314621E1,2.547702026E-1,4.209955414E-1,-1.188699126E0,-5.335092545E-1,-1.185129523E0
4.272195417E-1,-3.353326721E0,-1.087967560E1,4.266128540E-1,4.309565416E-1,-1.209184766E0,-3.627334237E-1,-1.102061391E0
4.371805415E-1,-4.692891083E0,-1.141017242E1,8.996292114E-2,4.409175417E-1,-1.264298558E0,-9.420767426E-2,-9.075176716E-1
4.471415416E-1,-5.926625519E0,-1.192570038E1,-5.686674500E-1,4.508785415E-1,-1.353741527E0,2.767094672E-1,-6.839094162E-1
4.571013334E-1,-6.765032043E0,-1.216550171E1,-5.822891235E-1,4.608383332E-1,-1.416718960E0,7.400342822E-1,-3.243006468E-1
4.670623331E-1,-7.291936340E0,-1.297576675E1,-1.862127686E-1,4.707993334E-1,-1.475107789E0,1.277450085E0,-4.324415699E-2
4.770233333E-1,-6.487209778E0,-1.268776566E1,2.392025757E-1,4.807603331E-1,-1.448438883E0,1.649357080E0,6.921926886E-2
4.869843335E-1,-5.324577484E0,-1.177930481E1,5.423222351E-1,4.907213333E-1,-1.381355762E0,1.834830046E0,1.751713082E-2
4.969443334E-1,-4.050876160E0,-1.122306152E1,3.408412170E-1,5.006813332E-1,-1.298810840E0,1.824585676E0,-2.136223465E-1
5.069053331E-1,-2.588567047E0,-1.037193146E1,-1.657054138E-1,5.106423334E-1,-1.198147178E0,1.559767127E0,-4.607818425E-1
5.168663333E-1,-1.892514496E0,-1.004935226E1,-1.091380463E0,5.206033331E-1,-1.141629815E0,1.130874038E0,-5.391131043E-1
5.268273330E-1,-1.595232697E0,-1.016745667E1,-1.923799438E0,5.305643333E-1,-1.133564830E0,7.906053066E-1,-5.834625959E-1
5.367873334E-1,-1.135538635E0,-1.013213013E1,-2.377056885E0,5.405243332E-1,-1.159892201E0,5.700902343E-1,-6.341763735E-1
5.467483331E-1,-4.776567078E-1,-1.000639160E1,-2.945424957E0,5.504853334E-1,-1.171009064E0,3.173268437E-1,-7.366312146E-1
5.567093333E-1,2.725831604E-1,-1.014620087E1,-3.269201660E0,5.604463331E-1,-1.237104893E0,2.685666643E-2,-8.366020322E-1
5.666703330E-1,8.780740356E-1,-1.037552399E1,-3.475323029E0,5.704073333E-1,-1.328688502E0,-2.210852802E-1,-9.555403590E-1
5.766303334E-1,1.299298096E0,-1.028436356E1,-3.140169983E0,5.803673333E-1,-1.358973742E0,-5.489576459E-1,-1.066045284E0
5.865913332E-1,1.223705292E0,-9.855056305E0,-2.712060242E0,5.903283334E-1,-1.347876906E0,-8.437373042E-1,-1.174988866E0
5.965523333E-1,1.120569763E0,-9.500443726E0,-2.327809296E0,6.002893331E-1,-1.326379061E0,-1.001851797E0,-1.223475218E0
6.065133330E-1,8.837622070E-1,-9.066795502E0,-2.060614929E0,6.102503333E-1,-1.270264030E0,-1.117763281E0,-1.242820024E0
6.164733334E-1,5.878276062E-1,-8.548124084E0,-1.781595154E0,6.202103333E-1,-1.158789158E0,-1.241504431E0,-1.282543659E0
6.264343332E-1,-6.361770630E-2,-7.923473053E0,-1.489402771E0,6.301713334E-1,-1.039539695E0,-1.393385053E0,-1.344984293E0
6.363953333E-1,-5.066963196E-1,-7.417225800E0,-1.358125763E0,6.401323332E-1,-8.910928965E-1,-1.503164291E0,-1.376945138E0
6.463563330E-1,-8.722361755E-1,-7.277266846E0,-1.300345917E0,6.500933333E-1,-7.051610947E-1,-1.571222901E0,-1.259106755E0
6.563163335E-1,-1.055305481E0,-7.027436371E0,-1.174457703E0,6.600533333E-1,-5.135887861E-1,-1.556488633E0,-1.168601036E0
6.662773332E-1,-1.278641052E0,-6.794820099E0,-1.330133972E0,6.700143334E-1,-3.300998211E-1,-1.448460937E0,-1.069549561E0
6.762383333E-1,-1.712438965E0,-6.642886047E0,-1.536105652E0,6.799753332E-1,-1.892095357E-1,-1.361822724E0,-9.476737380E-1
6.861993331E-1,-1.652713165E0,-6.325995026E0,-2.039658508E0,6.899363333E-1,-7.902079821E-2,-1.320276260E0,-8.368879557E-1
6.961593335E-1,-1.360670471E0,-6.141578522E0,-2.210303650E0,6.998963333E-1,-2.071951982E-3,-1.258788347E0,-6.986908913E-1
7.061203332E-1,-1.123713226E0,-6.083648987E0,-2.179168396E0,7.098573335E-1,7.324469090E-2,-1.180765033E0,-5.656708479E-1
7.160813333E-1,-9.572593689E-1,-6.092031555E0,-2.118095398E0,7.198183332E-1,1.478717923E-1,-1.118780732E0,-4.619886279E-1
7.260423331E-1,-7.710466003E-1,-6.405928802E0,-2.137854309E0,7.297793333E-1,2.640307248E-1,-1.021745563E0,-4.185120463E-1
7.360023335E-1,-5.210664368E-1,-6.467301178E0,-1.793570251E0,7.397393333E-1,3.916313052E-1,-7.833580375E-1,-3.603478074E-1
7.459633332E-1,-4.496649170E-1,-6.491101685E0,-1.761237488E0,7.497003335E-1,5.234027505E-1,-5.393936038E-1,-3.010142446E-1
7.559243334E-1,-4.784051514E-1,-6.437513123E0,-1.998793488E0,7.596613332E-1,6.240965724E-1,-2.400097847E-1,-2.177902013E-1
7.658853331E-1,-9.090596008E-1,-6.480773163E0,-2.528392181E0,7.696223333E-1,6.619861126E-1,2.899425663E-2,-1.146461666E-1
7.758453335E-1,-1.240320740E0,-6.618786163E0,-3.378474426E0,7.795823333E-1,6.374021769E-1,1.828903407E-1,9.103200398E-3
7.858063332E-1,-1.379830627E0,-7.014563141E0,-4.160148926E0,7.895433335E-1,5.782750249E-1,1.975660920E-1,1.145159900E-1
7.957673334E-1,-1.464255066E0,-7.479945374E0,-4.789140930E0,7.995043332E-1,5.098533630E-1,1.076183692E-1,1.458664536E-1
8.057283331E-1,-1.397793274E0,-8.043523407E0,-5.368735657E0,8.094653334E-1,4.035396576E-1,-7.807990164E-2,1.831538081E-1
8.156883335E-1,-1.006357269E0,-8.801247711E0,-5.815406799E0,8.194253333E-1,2.744402587E-1,-2.575812340E-1,1.776210964E-1
8.256493332E-1,-5.212161255E-1,-9.724228363E0,-6.307583313E0,8.293863335E-1,1.197118983E-1,-3.632710874E-1,1.251132786E-1
8.356103334E-1,5.538482666E-3,-1.061831909E1,-6.634204102E0,8.393473332E-1,-6.384195387E-2,-4.098817408E-1,3.664813936E-2
8.455713331E-1,5.008584595E-1,-1.118698654E1,-6.892566833E0,8.493083334E-1,-2.644862235E-1,-3.627556562E-1,-4.260708764E-2
8.555313335E-1,6.506968689E-1,-1.152438492E1,-6.775809631E0,8.592683333E-1,-4.318741560E-1,-3.218231201E-1,-8.436731994E-2
8.654923332E-1,5.284011841E-1,-1.165042282E1,-6.418951721E0,8.692293335E-1,-5.592047572E-1,-3.694255054E-1,-1.037550718E-1
8.754533334E-1,4.758604431E-1,-1.121887024E1,-6.131100311E0,8.791903332E-1,-6.186587811E-1,-4.490127563E-1,-1.016349345E-1
8.854143331E-1,1.740879822E-1,-1.071157516E1,-5.833968201E0,8.891513334E-1,-5.947484970E-1,-5.591962934E-1,-6.699007750E-2
8.953743335E-1,-6.030958557E-1,-1.066696793E1,-6.236032104E0,8.991113333E-1,-4.542060196E-1,-6.766872406E-1,-7.927289233E-3
9.053353332E-1,-9.810598755E-1,-1.145268402E1,-5.705984344E0,9.090723335E-1,-2.427739054E-1,-5.880881548E-1,1.164625306E-2
9.152963334E-1,-5.713618469E-1,-1.277159134E1,-4.305945740E0,9.190333332E-1,-1.142566651E-1,-4.329917729E-1,1.255252678E-2
9.252573331E-1,-7.289840698E-2,-1.337977661E1,-3.854185181E0,9.289943334E-1,-5.916937068E-2,-2.996492088E-1,3.683253005E-2
9.352173330E-1,-5.038522339E-1,-1.311377975E1,-3.781137085E0,9.389543333E-1,3.654384241E-2,-2.423552871E-1,1.005521193E-1
9.451783332E-1,-1.383273468E0,-1.262624359E1,-3.423381042E0,9.489153335E-1,1.396660507E-1,-1.632625312E-1,1.782672405E-1
9.551393334E-1,-1.522783356E0,-1.199695221E1,-3.064876556E0,9.588763332E-1,2.187885642E-1,-6.586913764E-2,2.218219042E-1
9.651003331E-1,-9.883946228E-1,-1.138756943E1,-2.611768799E0,9.688373334E-1,2.784750164E-1,1.156967282E-1,2.482728362E-1
9.750603330E-1,-1.004111938E0,-1.093326416E1,-2.202669525E0,9.787973333E-1,2.610142827E-1,3.758974373E-1,2.903023362E-1
9.850213332E-1,-1.698966980E0,-1.057655594E1,-2.791544952E0,9.887583330E-1,1.674180627E-1,4.754428864E-1,3.303209543E-1
9.949823334E-1,-2.671494598E0,-1.047282166E1,-4.164789276E0,9.987193332E-1,8.232074976E-2,4.046747088E-1,3.683535755E-1
1.004943333E0,-3.549718323E0,-1.038630157E1,-4.644541626E0,1.008680333E0,5.438047275E-2,2.875882089E-1,4.783819318E-1
1.014903333E0,-4.087549896E0,-9.545350342E0,-3.753744049E0,1.018640333E0,2.582339384E-2,1.771319956E-1,6.449663639E-1
1.024864333E0,-3.629203033E0,-8.004604340E0,-2.522554321E0,1.028601333E0,-6.498013437E-2,5.747706443E-2,7.986251116E-1
1.034825333E0,-2.627935181E0,-6.749913483E0,-1.504072266E0,1.038562333E0,-1.279463172E-1,-6.449837238E-2,9.000987411E-1
1.044786333E0,-1.511107635E0,-6.019582214E0,-1.965412903E-1,1.048523333E0,-1.072347835E-1,-2.681872547E-1,9.946358204E-1
1.054746333E0,-8.514294434E-1,-5.872138824E0,1.025068359E0,1.058483333E0,1.111103687E-2,-5.572113395E-1,1.096959591E0
1.064707333E0,-3.504212952E-1,-5.982609100E0,1.804347839E0,1.068444333E0,2.011194825E-1,-8.750627041E-1,1.175108552E0
1.074668333E0,-3.742218018E-2,-6.261479187E0,2.167792053E0,1.078405333E0,4.380742311E-1,-1.088678241E0,1.181439161E0
1.084629333E0,2.504292297E-1,-6.647825775E0,2.212399292E0,1.088366333E0,7.209377885E-1,-1.263850570E0,1.105668783E0
1.094589333E0,3.646417236E-1,-7.253316650E0,2.053130493E0,1.098326333E0,1.024029732E0,-1.155900121E0,9.615328312E-1
1.104550333E0,2.760260010E-1,-8.032745819E0,2.046394501E0,1.108287333E0,1.328185201E0,-9.431841373E-1,7.463374138E-1
1.114511333E0,1.056802368E-1,-8.958869934E0,1.725012817E0,1.118248333E0,1.621981621E0,-5.704231262E-1,5.256569386E-1
1.124471333E0,-5.948629761E-1,-1.001267853E1,1.391057281E0,1.128208333E0,1.881330848E0,-1.097353250E-1,3.060287535E-1
1.134432333E0,-1.385369110E0,-1.072265213E1,9.213340759E-1,1.138169333E0,2.103804588E0,4.554843903E-1,1.420709938E-1
1.144393333E0,-2.116897888E0,-1.136107452E1,5.863307190E-1,1.148130333E0,2.231757641E0,9.517683983E-1,2.574860305E-2
1.154354333E0,-2.647694092E0,-1.229662903E1,3.876937866E-2,1.158091333E0,2.161059141E0,1.358289719E0,-1.237735078E-1
1.164314333E0,-2.113754425E0,-1.287697220E1,-1.166374512E0,1.168051333E0,1.767504811E0,1.484203458E0,-3.892760277E-1
1.174275333E0,-1.362167358E0,-1.237371872E1,-3.544928284E0,1.178012333E0,1.118121505E0,1.343504429E0,-5.215725899E-1
1.184236333E0,-1.394949188E0,-1.064316742E1,-5.957012329E0,1.187973333E0,5.202699900E-1,1.019074798E0,-4.756797552E-1
1.194197333E0,-1.301393738E0,-9.497000885E0,-6.259982300E0,1.197934333E0,1.638122648E-1,6.849557161E-1,-2.910406590E-1
1.204157333E0,-1.144070892E0,-9.398505707E0,-4.980443115E0,1.207894333E0,5.012484267E-2,4.063201845E-1,-8.203431219E-2
1.214118333E0,-8.815168762E-1,-9.352401581E0,-3.531156921E0,1.217855333E0,3.594643995E-2,2.704765797E-1,7.555185258E-2
1.224079333E0,-8.503816223E-1,-9.160650330E0,-2.147584076E0,1.227816333E0,1.005005017E-1,2.717571855E-1,1.396286488E-1
1.234040333E0,-1.039139099E0,-8.696315918E0,-5.795947266E-1,1.237777333E0,2.046817690E-1,3.661249578E-1,1.780575365E-1
1.244000333E0,-1.547631683E0,-8.286767578E0,6.759942627E-1,1.247737333E0,3.263240457E-1,4.750236273E-1,2.093018740E-1
1.253961333E0,-1.752705231E0,-7.998467102E0,1.544338531E0,1.257698333E0,4.589569271E-1,5.715784431E-1,2.297301888E-1
1.263922333E0,-1.711690521E0,-7.837252350E0,2.050286407E0,1.267659333E0,6.337569952E-1,6.511254907E-1,2.631286085E-1
1.273883333E0,-1.702260132E0,-7.920479279E0,2.106868744E0,1.277620333E0,8.324567676E-1,6.728004217E-1,3.046140075E-1
1.283843333E0,-1.483265533E0,-8.367599487E0,1.705104218E0,1.287580333E0,1.032595158E0,6.423702240E-1,3.607492149E-1
1.293804333E0,-1.306333466E0,-8.837322693E0,7.952961731E-1,1.297541333E0,1.209935546E0,5.873394608E-1,4.153365493E-1
1.303765333E0,-9.674382019E-1,-9.164691925E0,-4.522096252E-1,1.307502333E0,1.316211224E0,5.522828102E-1,4.418264627E-1
1.313726333E0,-4.986131287E-1,-9.416019287E0,-1.959874420E0,1.317463333E0,1.284640789E0,5.610174537E-1,4.683339596E-1
1.323686333E0,-1.254391479E-1,-9.730814667E0,-3.360062714E0,1.327423333E0,1.090850115E0,6.293818951E-1,5.151543617E-1
1.333647333E0,1.362167358E-1,-1.001133133E1,-4.250860291E0,1.337384333E0,8.098187447E-1,7.275622487E-1,5.647717118E-1
1.343608333E0,4.254153442E-1,-1.011805939E1,-4.332290955E0,1.347345333E0,5.479038358E-1,7.672503591E-1,5.801843405E-1
1.353569333E0,5.840853882E-1,-1.010533585E1,-3.665876770E0,1.357306333E0,3.944405317E-1,6.892163157E-1,5.794826150E-1
1.363529333E0,4.245172119E-1,-9.851763153E0,-2.762355652E0,1.367266333E0,3.058990836E-1,5.030038357E-1,5.257506967E-1
1.373490333E0,3.162922668E-1,-9.597142639E0,-2.133812714E0,1.377227333E0,2.529575825E-1,3.231483102E-1,4.757170975E-1
1.383451333E0,-3.996688843E-2,-9.350156250E0,-1.548529816E0,1.387188333E0,2.443933040E-1,2.444064021E-1,4.281112850E-1
1.393412333E0,-2.180964661E-1,-9.161698151E0,-1.099463654E0,1.397149333E0,2.823675871E-1,2.361303568E-1,3.964463174E-1
1.403372333E0,-3.712280273E-1,-9.132808228E0,-1.036893768E0,1.407109333E0,3.675713241E-1,2.920811474E-1,4.281468987E-1
1.413333333E0,-5.809419250E-1,-9.105115814E0,-1.138233032E0,1.417070333E0,3.778575361E-1,2.718967795E-1,4.209195971E-1
1.423294333E0,-9.849517822E-2,-9.331445160E0,-1.532064056E0,1.427031333E0,3.558955193E-1,2.710397243E-1,4.393783510E-1
1.433255333E0,7.619155884E-2,-9.396110687E0,-1.400337982E0,1.436992333E0,3.255080581E-1,2.496335059E-1,4.682744741E-1
1.443215333E0,4.505630493E-1,-9.464668121E0,-1.100062408E0,1.446952333E0,3.436000645E-1,2.344547659E-1,4.655297399E-1
1.453176333E0,1.097218323E0,-9.556277618E0,-9.288185120E-1,1.456913333E0,4.025209248E-1,1.638136208E-1,3.903391361E-1
1.463137333E0,1.537452850E0,-9.695039063E0,-1.010548553E0,1.466874333E0,4.956133366E-1,8.566073328E-2,2.934891284E-1
1.473098333E0,1.750310211E0,-9.927056580E0,-1.444047089E0,1.476835333E0,5.186308026E-1,3.110853955E-2,1.494230330E-1
1.483058333E0,1.768123169E0,-1.030397278E1,-1.922452240E0,1.486795333E0,4.951299727E-1,1.199712977E-1,6.978385895E-2
1.493019333E0,9.439370728E-1,-1.061921722E1,-2.081721039E0,1.496756333E0,4.534829557E-1,2.173388600E-1,6.331104785E-2
1.502980333E0,4.960684204E-1,-1.084030746E1,-2.637515259E0,1.506717333E0,3.582743704E-1,1.776527613E-1,-2.875017934E-3
1.512941333E0,4.077520752E-1,-1.090676926E1,-2.869981842E0,1.516678333E0,2.979881167E-1,2.029173821E-1,-1.329623349E-2
1.522901333E0,1.736389160E-2,-1.079225739E1,-2.314936066E0,1.526638333E0,2.626411021E-1,2.142324001E-1,-1.370252948E-2
1.532862333E0,7.738906860E-2,-1.050680099E1,-1.978435822E0,1.536599333E0,2.622320652E-1,2.212231904E-1,-5.440202355E-2
1.542823333E0,1.314266968E-1,-1.033435959E1,-1.694176941E0,1.546560333E0,2.724224329E-1,2.263004482E-1,-1.210585833E-1
1.552783333E0,-5.209167480E-2,-1.044108765E1,-1.633253632E0,1.556520333E0,2.541750073E-1,2.661927342E-1,-2.139946371E-1
1.562744333E0,-3.397933960E-1,-1.071277267E1,-1.893861694E0,1.566481333E0,1.745355576E-1,3.312901855E-1,-3.253645897E-1
1.572705333E0,-6.719526672E-1,-1.121662491E1,-2.223925323E0,1.576442333E0,3.744854033E-2,3.760022521E-1,-4.569718838E-1
1.582666333E0,-8.369096375E-1,-1.176718002E1,-2.338586884E0,1.586403333E0,-1.253726929E-1,3.631415069E-1,-6.017531157E-1
1.592626333E0,-8.146060181E-1,-1.205832458E1,-2.030228119E0,1.596363333E0,-2.849157453E-1,2.818605006E-1,-7.675135732E-1
1.602587333E0,-5.608836365E-1,-1.206416245E1,-1.374292145E0,1.606324333E0,-4.464059472E-1,1.823598742E-1,-9.502148032E-1
1.612548333E0,-3.704795837E-1,-1.190489365E1,-8.387059021E-1,1.616285333E0,-5.929905772E-1,8.949278295E-2,-1.118182659E0
1.622509333E0,-6.812333679E-1,-1.155013138E1,-5.869294739E-1,1.626246333E0,-7.090924382E-1,3.076383471E-2,-1.252652287E0
1.632469333E0,-1.228495331E0,-1.091769653E1,-3.095562744E-1,1.636206333E0,-8.159973025E-1,1.602270454E-2,-1.345595002E0
1.642430333E0,-1.843865662E0,-1.016371445E1,-1.526824951E-1,1.646167333E0,-9.277135134E-1,9.842033498E-3,-1.382384300E0
1.652391333E0,-2.474953308E0,-9.433083801E0,-9.624984741E-2,1.656128333E0,-1.043736339E0,5.065882578E-4,-1.365953088E0
1.662352333E0,-3.072660370E0,-8.795559540E0,-2.827619934E-1,1.666089333E0,-1.166867852E0,1.240663929E-3,-1.316290498E0
1.672312333E0,-3.653153229E0,-8.456514587E0,-7.273374939E-1,1.676049333E0,-1.284723997E0,8.051791042E-2,-1.237025499E0
1.682273333E0,-4.349205780E0,-8.665629730E0,-8.774752808E-1,1.686010333E0,-1.382881403E0,3.376262784E-1,-1.091757894E0
1.692234333E0,-5.232967987E0,-9.459129639E0,-7.813751221E-1,1.695971333E0,-1.488610744E0,7.760648727E-1,-8.907963634E-1
1.702195333E0,-6.111491089E0,-1.071696396E1,-9.045689392E-1,1.705932333E0,-1.543182373E0,1.375563741E0,-6.530326605E-1
1.712155333E0,-6.962321777E0,-1.235889954E1,-5.224136353E-1,1.715892333E0,-1.459804416E0,2.050617933E0,-3.897882700E-1
1.722116333E0,-7.590864716E0,-1.389680145E1,2.335144043E-1,1.725853333E0,-1.274107218E0,2.588966370E0,-1.577036232E-1
1.732077333E0,-7.261848907E0,-1.449031723E1,1.052311707E-1,1.735814333E0,-1.094989777E0,2.642386913E0,-3.666429594E-2
1.742038333E0,-6.109694824E0,-1.395637756E1,-1.226250000E0,1.745775333E0,-1.010089517E0,2.235262156E0,-3.067377955E-2
1.751998333E0,-4.792134705E0,-1.263477585E1,-2.249522095E0,1.755735333E0,-1.082894444E0,1.643562555E0,-5.271916091E-2
1.761959333E0,-3.446582794E0,-1.118384308E1,-2.613565063E0,1.765696333E0,-1.268644691E0,1.104881763E0,-9.800413251E-2
1.771920333E0,-1.878892822E0,-1.019230499E1,-2.548600159E0,1.775657333E0,-1.512307525E0,7.471236587E-1,-1.826684177E-1
1.781881333E0,-5.316943359E-1,-9.603878632E0,-2.355052643E0,1.785618333E0,-1.748159170E0,5.987110138E-1,-3.190666139E-1
1.791841333E0,8.325686646E-1,-9.124575348E0,-2.360142059E0,1.795578333E0,-1.916558027E0,5.871973634E-1,-5.595503449E-1
1.801802333E0,2.086810455E0,-9.243577881E0,-2.881358185E0,1.805539333E0,-1.935429692E0,6.912508607E-1,-8.241259456E-1
1.811763333E0,2.487078094E0,-9.846074982E0,-3.501817932E0,1.815500333E0,-1.644233465E0,6.527593732E-1,-1.091849208E0
1.821724333E0,3.257525940E0,-1.031355286E1,-3.585194550E0,1.825461333E0,-1.194989085E0,6.122168899E-1,-1.376640320E0
1.831684333E0,3.826792145E0,-1.010638367E1,-2.912044373E0,1.835421333E0,-8.077617288E-1,5.217325091E-1,-1.610889792E0
1.841645333E0,3.705095215E0,-9.732760620E0,-2.789299622E0,1.845382333E0,-6.035504937E-1,2.803782225E-1,-1.746949553E0
1.851606333E0,3.041824493E0,-9.213041382E0,-3.162772980E0,1.855343333E0,-5.996087790E-1,-1.671537310E-1,-1.710745692E0
1.861567333E0,2.140399017E0,-8.740025024E0,-3.592828674E0,1.865304333E0,-6.628006697E-1,-6.677932739E-1,-1.578792453E0
1.871527333E0,2.112107849E0,-8.199798431E0,-3.406615906E0,1.875264333E0,-7.058661580E-1,-1.162693024E0,-1.382955313E0
1.881488333E0,1.850302277E0,-7.709867249E0,-2.740950165E0,1.885225333E0,-6.692617536E-1,-1.367713928E0,-1.163771987E0
1.891449333E0,1.110839996E0,-6.840475159E0,-2.154320068E0,1.895186333E0,-5.996914506E-1,-1.494139314E0,-9.646517038E-1
1.901409333E0,2.321672058E-1,-5.945935364E0,-2.375559998E0,1.905146333E0,-4.668475688E-1,-1.608421087E0,-7.744085789E-1
1.911370333E0,-5.875282288E-1,-5.235363007E0,-2.188898163E0,1.915107333E0,-3.000612557E-1,-1.643864274E0,-5.766251683E-1
1.921331333E0,-9.370513916E-1,-4.834346924E0,-2.024090881E0,1.925068333E0,-1.412133723E-1,-1.562486291E0,-3.747994900E-1
1.931292333E0,-8.467890930E-1,-4.698279877E0,-2.070943451E0,1.935029333E0,-1.145164482E-2,-1.386359811E0,-1.771583259E-1
1.941252333E0,-6.468049622E-1,-4.716691589E0,-2.081122284E0,1.944989333E0,1.237401366E-1,-1.140040994E0,1.201925427E-2
1.951213333E0,-3.680845642E-1,-4.850213928E0,-1.959125977E0,1.954950333E0,2.897184789E-1,-8.928738236E-1,1.598649025E-1
1.961174333E0,-1.212478638E-1,-5.026247864E0,-2.011517029E0,1.964911333E0,4.740444124E-1,-6.984503865E-1,2.611089349E-1
1.971135333E0,2.094145203E-1,-5.347779236E0,-2.139949951E0,1.974872333E0,6.336154342E-1,-5.404959321E-1,2.961673141E-1
1.981095333E0,6.192622375E-1,-5.693410492E0,-2.299518127E0,1.984832333E0,7.231895924E-1,-4.074247479E-1,2.932740450E-1
1.991056333E0,7.776329041E-1,-6.058950348E0,-2.669548645E0,1.994793333E0,7.478403449E-1,-2.962806523E-1,2.833798528E-1
2.001017333E0,8.604107666E-1,-6.457421722E0,-3.305875397E0,2.004754333E0,7.376738191E-1,-2.555171251E-1,2.587125599E-1
2.010978333E0,1.016835480E0,-6.936575317E0,-4.203109589E0,2.014715333E0,6.783375144E-1,-2.757438421E-1,2.126294971E-1
2.020938333E0,1.230890350E0,-7.638316040E0,-5.418582001E0,2.024675333E0,5.363787413E-1,-3.562806547E-1,1.378525943E-1
2.030899333E0,1.728006592E0,-8.529113617E0,-6.491850128E0,2.034636333E0,3.759568334E-1,-4.098367989E-1,4.762735963E-2
2.040860333E0,2.081421661E0,-9.486971741E0,-6.763535156E0,2.044597333E0,2.848612964E-1,-4.428972900E-1,-1.771302894E-2
2.050821333E0,2.137554932E0,-1.018317398E1,-6.574478302E0,2.054558333E0,2.413913161E-1,-4.606195688E-1,-7.249078900E-2
2.060781333E0,2.183958435E0,-1.056353302E1,-6.424939270E0,2.064518333E0,1.902043372E-1,-3.564050794E-1,-1.459286809E-1
2.070742333E0,2.266736298E0,-1.105570953E1,-6.572981415E0,2.074479333E0,1.254397184E-1,-2.810810208E-1,-2.471698225E-1
2.080703333E0,2.150577850E0,-1.187779999E1,-6.809938660E0,2.084440333E0,7.645148784E-2,-2.709045410E-1,-3.232955039E-1
2.090664333E0,1.792372742E0,-1.243479172E1,-6.774462433E0,2.094401333E0,4.169670492E-2,-3.759289682E-1,-3.586542904E-1
2.100624333E0,1.397942963E0,-1.212912735E1,-6.594386902E0,2.104361333E0,5.182726309E-3,-4.809391797E-1,-3.567463160E-1
2.110585333E0,1.196461945E0,-1.101828735E1,-6.248905334E0,2.114322333E0,-5.540205538E-2,-5.604315996E-1,-3.115285039E-1
2.120546333E0,1.451381836E0,-9.311386871E0,-6.013295288E0,2.124283333E0,-1.118781343E-1,-5.462690592E-1,-2.755146027E-1
2.130506333E0,1.661395111E0,-7.383545837E0,-5.482948151E0,2.134243333E0,-7.329319417E-2,-4.439242482E-1,-2.066297829E-1
2.140467333E0,1.490450592E0,-5.944139099E0,-5.202431488E0,2.144204333E0,1.462326944E-1,-3.152971268E-1,-1.677943319E-1
2.150428333E0,1.500928802E0,-5.546266479E0,-4.520749054E0,2.154165333E0,4.291429520E-1,-1.866083592E-1,-1.319987923E-1
2.160389333E0,1.362766113E0,-6.820566559E0,-3.668571167E0,2.164126333E0,6.794029474E-1,-1.008166969E-1,-3.911163285E-2
2.170349333E0,1.185983734E0,-8.802445221E0,-2.920576630E0,2.174086333E0,9.002090693E-1,1.759169996E-2,6.387493759E-2
2.180310333E0,7.234455872E-1,-1.014350647E1,-2.355202332E0,2.184047333E0,1.100167274E0,9.639830142E-2,1.469066739E-1
2.190271333E0,-3.373983765E-1,-1.177406570E1,-1.372196503E0,2.194008333E0,1.358578324E0,2.953911573E-2,1.535507292E-1
2.200232333E0,-1.294508057E0,-1.435050797E1,-3.121009827E-1,2.203969333E0,1.747653842E0,-6.421127915E-2,1.853236109E-1
2.210192333E0,-2.690804443E0,-1.826561646E1,8.794212341E-1,2.213929333E0,1.868756294E0,1.587472260E-1,2.880731523E-1
2.220153333E0,-4.293222198E0,-2.162358353E1,-6.248007202E-1,2.223890333E0,1.313783765E0,4.013211131E-1,3.612842858E-1
2.230114333E0,-5.007836151E0,-2.135429352E1,-5.029840393E0,2.233851333E0,3.170992434E-1,3.874095380E-1,2.152077854E-1
2.240075333E0,-5.663921814E0,-1.667801788E1,-6.424939270E0,2.243812333E0,-4.986795485E-1,2.749255300E-1,1.269372106E-1
2.250035333E0,-6.475084991E0,-1.099972595E1,-3.713627472E0,2.253772333E0,-9.491931796E-1,1.510065198E-1,3.026485741E-1
2.259996333E0,-5.276976471E0,-7.641758881E0,-1.493594055E0,2.263733333E0,-1.151344895E0,8.427698910E-2,5.364702344E-1
2.269957333E0,-3.248544617E0,-5.458997955E0,-2.035766602E-2,2.273694333E0,-1.105134487E0,-7.394806296E-2,7.552449107E-1
2.279918333E0,-1.611997833E0,-4.107009430E0,1.346599731E0,2.283655333E0,-8.371189237E-1,-3.341066837E-1,9.676262140E-1
2.289878333E0,-2.158511353E-1,-3.603606262E0,2.518812103E0,2.293615333E0,-4.030891955E-1,-5.093440413E-1,1.132011414E0
2.299839333E0,1.035845947E0,-3.864663391E0,3.327280884E0,2.303576333E0,1.035180762E-1,-7.730801702E-1,1.251366377E0
2.309800333E0,1.626068573E0,-4.721930695E0,3.204236755E0,2.313537333E0,6.035790443E-1,-9.763371348E-1,1.287009597E0
2.319760333E0,2.049837341E0,-6.127657471E0,2.981499939E0,2.323497333E0,1.075099111E0,-9.671650529E-1,1.212011099E0
2.329721333E0,2.445015564E0,-8.067772980E0,3.154091034E0,2.333458333E0,1.514096498E0,-5.788226128E-1,1.009649754E0
2.339682333E0,2.726879425E0,-1.007779312E1,3.545377350E0,2.343419333E0,1.833777547E0,1.564086378E-1,6.268050671E-1
2.349643333E0,3.042722626E0,-1.231010101E1,3.083138580E0,2.353380333E0,1.946284652E0,8.409313560E-1,1.030462682E-1
2.359603333E0,2.592908020E0,-1.411834076E1,1.151555328E0,2.363340333E0,1.844055057E0,1.161500096E0,-2.486995310E-1
2.369564333E0,5.260061646E-1,-1.418046158E1,-1.259031830E0,2.373301333E0,1.532417536E0,1.182389498E0,-2.389315963E-1
2.379525333E0,-2.125430145E0,-1.263657211E1,-2.905607758E0,2.383262333E0,1.134849310E0,1.261719942E0,9.968730621E-3
2.389486333E0,-3.709286499E0,-1.129356491E1,-2.655926971E0,2.393223333E0,8.211509585E-1,1.627543211E0,3.044171631E-1
2.399446333E0,-3.724554749E0,-1.025008484E1,-1.513203278E0,2.403183333E0,6.484184861E-1,1.881857038E0,4.406878352E-1
2.409407333E0,-2.650538177E0,-8.881480865E0,-2.262395325E0,2.413144333E0,5.361222625E-1,1.565604806E0,4.348911941E-1
2.419368333E0,-1.373394012E0,-7.761509857E0,-4.468208313E0,2.423105333E0,4.361358285E-1,9.826881289E-1,3.903637528E-1
2.429329333E0,-5.149291992E-2,-7.303911438E0,-5.376369781E0,2.433066333E0,3.237762749E-1,5.076707602E-1,3.651185930E-1
2.439289333E0,1.002914429E0,-7.462880859E0,-4.559219055E0,2.443026333E0,1.836829931E-1,4.374554753E-1,3.127294779E-1
2.449250833E0,1.383722534E0,-7.458390198E0,-2.892435150E0,2.452987833E0,1.644153707E-2,5.144115090E-1,2.470356822E-1
2.459211833E0,1.473984833E0,-7.501949615E0,-1.870659943E0,2.462948833E0,-1.318160444E-1,4.955041707E-1,1.788785756E-1
2.469172833E0,1.176253967E0,-7.674091644E0,-9.102571106E-1,2.472909833E0,-1.375213414E-1,4.848904014E-1,1.546486020E-1
2.479132833E0,3.793112183E-1,-7.878716125E0,7.107220459E-1,2.482869833E0,3.622219339E-2,6.113717556E-1,1.691915989E-1
2.489093833E0,-5.701643372E-1,-8.416098633E0,2.160756683E0,2.492830833E0,3.351652324E-1,7.429114580E-1,2.408476770E-1
2.499054833E0,-1.228495331E0,-9.134903870E0,2.705174561E0,2.502791833E0,6.631084085E-1,7.514103651E-1,3.606280386E-1
2.509014833E0,-1.440454559E0,-9.732012177E0,2.396965485E0,2.512751833E0,9.696182609E-1,6.373905540E-1,5.038205981E-1
2.518975833E0,-1.320404205E0,-9.931397552E0,1.704655151E0,2.522712833E0,1.262234092E0,5.782880187E-1,6.412006617E-1
2.528936833E0,-1.073717194E0,-9.866732025E0,1.027613068E0,2.532673833E0,1.499397159E0,5.663432479E-1,7.363168001E-1
2.538897833E0,-5.361849976E-1,-9.593999176E0,-5.069956970E-1,2.542634833E0,1.557666063E0,4.718559086E-1,7.916274071E-1
2.548857833E0,6.870712280E-2,-9.369166718E0,-2.947670288E0,2.552594833E0,1.369758487E0,3.349049985E-1,8.245658875E-1
2.558818833E0,5.108876038E-1,-9.332792358E0,-5.131179657E0,2.562555833E0,9.663362503E-1,3.248699307E-1,8.332595825E-1
2.568779833E0,9.440867615E-1,-9.434431000E0,-6.066584473E0,2.572516833E0,4.810696840E-1,4.395389855E-1,8.227616549E-1
2.578740833E0,1.402134247E0,-9.561965790E0,-5.565426636E0,2.582477833E0,8.778785914E-2,4.647271931E-1,7.996895313E-1
2.588700833E0,1.893262939E0,-9.404493256E0,-4.280798035E0,2.592437833E0,-1.308044046E-1,3.786189556E-1,7.412752509E-1
2.598661833E0,2.093995514E0,-9.169781342E0,-2.697839813E0,2.602398833E0,-1.946006119E-1,2.370333821E-1,6.211404204E-1
2.608622833E0,2.068099365E0,-9.024433594E0,-1.407672729E0,2.612359833E0,-9.680587053E-2,1.567987204E-1,4.709295928E-1
2.618583833E0,1.699715424E0,-9.046737213E0,-1.086740112E-1,2.622320833E0,8.710940182E-2,1.572403014E-1,3.472266793E-1
2.628543833E0,1.142574005E0,-9.310788116E0,4.227209473E-1,2.632280833E0,2.172458321E-1,1.376093328E-1,2.983259857E-1
2.638504833E0,6.599775696E-1,-9.566157074E0,6.017486572E-2,2.642241833E0,3.056925535E-1,7.366307080E-2,2.684662640E-1
2.648465833E0,4.962181091E-1,-9.685758362E0,-4.177812195E-1,2.652202833E0,3.729727864E-1,3.912932798E-2,2.538702786E-1
2.658425833E0,5.222639465E-1,-9.533075867E0,-7.833210754E-1,2.662162833E0,4.080015421E-1,-1.042947173E-2,2.197406888E-1
2.668386833E0,1.303639069E0,-9.659562836E0,-1.658700714E0,2.672123833E0,3.854437768E-1,-7.067896426E-2,1.445229053E-1
2.678347833E0,1.763782196E0,-9.811496887E0,-2.167492676E0,2.682084833E0,3.692036569E-1,4.929271340E-2,1.098474264E-1
2.688308833E0,1.606159973E0,-1.010009674E1,-2.208956451E0,2.692045833E0,3.484347463E-1,1.489889324E-1,6.683950871E-2
2.698268833E0,2.083517303E0,-1.075543396E1,-3.047063599E0,2.702005833E0,2.764924765E-1,1.135657802E-1,-1.175470091E-2
2.708229833E0,2.073488159E0,-1.119372253E1,-3.517984314E0,2.711966833E0,1.977928877E-1,1.371288896E-1,-5.465583131E-2
2.718190833E0,1.635948029E0,-1.144983994E1,-3.521427155E0,2.721927833E0,1.020034850E-1,1.420603395E-1,-7.434923202E-2
2.728151833E0,1.443148956E0,-1.140912460E1,-3.653003540E0,2.731888833E0,-5.962927826E-3,1.494021416E-1,-9.961197525E-2
2.738111833E0,1.431323547E0,-1.105825424E1,-3.370690613E0,2.741848833E0,-7.828444242E-2,1.828539670E-1,-1.378700733E-1
2.748072833E0,1.489851837E0,-1.076456497E1,-2.802921295E0,2.751809833E0,-8.749844879E-2,1.912024468E-1,-1.798055321E-1
2.758033833E0,1.450184326E0,-1.075244019E1,-2.407443695E0,2.761770833E0,-8.829618245E-2,1.302052438E-1,-2.287031114E-1
2.767994833E0,1.275796967E0,-1.105091949E1,-2.303410034E0,2.771731833E0,-1.364434808E-1,4.128549621E-2,-2.934381366E-1
2.777954833E0,1.124910736E0,-1.137739059E1,-2.148781586E0,2.781691833E0,-2.488784641E-1,-6.472741254E-3,-3.908926547E-1
2.787915833E0,1.166524200E0,-1.147543671E1,-1.957928467E0,2.791652833E0,-4.233826399E-1,-1.089518610E-2,-5.280310512E-1
2.797876833E0,1.210532684E0,-1.125509491E1,-1.862127686E0,2.801613833E0,-6.483010054E-1,-3.382450715E-2,-6.882066727E-1
2.807837833E0,1.137783966E0,-1.074226135E1,-1.580263824E0,2.811574833E0,-8.999143839E-1,-1.544161737E-1,-8.641713262E-1
2.817797833E0,1.218765564E0,-1.020607635E1,-1.050365753E0,2.821534833E0,-1.108035326E0,-4.447261691E-1,-1.044814944E0
2.827758833E0,1.320553894E0,-9.724078674E0,-5.415737915E-1,2.831495833E0,-1.232060552E0,-8.400266767E-1,-1.209546328E0
2.837719833E0,1.113833771E0,-9.264534302E0,-1.550775146E-1,2.841456833E0,-1.263219237E0,-1.227706432E0,-1.332331061E0
2.847679833E0,4.496649170E-1,-9.019044800E0,1.794767761E-1,2.851416833E0,-1.253520846E0,-1.473699927E0,-1.407071710E0
2.857640833E0,-5.710624695E-1,-9.148525543E0,5.306465149E-1,2.861377833E0,-1.263386011E0,-1.352811098E0,-1.412928581E0
2.867601833E0,-2.093546448E0,-9.546847229E0,7.135661316E-1,2.871338833E0,-1.324844480E0,-8.659220934E-1,-1.332886696E0
2.877562833E0,-4.079167328E0,-1.035860916E1,-6.541397095E-2,2.881299833E0,-1.448131919E0,-2.086081952E-1,-1.127041578E0
2.887522833E0,-6.388564911E0,-1.197345108E1,-6.357279968E-1,2.891259833E0,-1.407442808E0,5.092250109E-1,-8.195753694E-1
2.897483833E0,-7.793243866E0,-1.393212799E1,2.630030823E-1,2.901220833E0,-1.172050357E0,1.103635311E0,-5.014109612E-1
2.907444833E0,-7.581584015E0,-1.534953049E1,9.735754395E-1,2.911181833E0,-8.359556794E-1,1.342821240E0,-2.452332377E-1
2.917405833E0,-6.150110779E0,-1.574231369E1,6.012995911E-1,2.921142833E0,-6.760998368E-1,1.162982106E0,-1.086473763E-1
2.927365833E0,-4.196672974E0,-1.463536560E1,-1.203347626E0,2.931102833E0,-8.078740835E-1,6.763144135E-1,-1.858668029E-1
2.937326833E0,-1.966610413E0,-1.285466858E1,-2.808010712E0,2.941063833E0,-1.109629393E0,2.288507968E-1,-3.655757308E-1
2.947287833E0,-6.836283875E-1,-1.158126663E1,-2.991828461E0,2.951024833E0,-1.449152827E0,1.560346484E-1,-5.219075084E-1
2.957247833E0,1.541793823E-1,-1.080049026E1,-2.707270203E0,2.960984833E0,-1.763861179E0,3.963919580E-1,-6.931579113E-1
2.967208833E0,1.067729645E0,-1.020143600E1,-2.885250092E0,2.970945833E0,-1.891556621E0,6.802449226E-1,-8.338266015E-1
2.977169833E0,1.604064331E0,-9.931247864E0,-2.963686981E0,2.980906833E0,-1.711523294E0,7.115972638E-1,-8.973220587E-1
2.987130833E0,1.974394226E0,-9.865833893E0,-3.075205078E0,2.990867833E0,-1.422782540E0,4.411316812E-1,-9.591236115E-1
2.997090833E0,3.040028229E0,-9.946815491E0,-3.198847961E0,3.000827833E0,-1.140536308E0,-1.044011638E-1,-1.229486585E0
3.007051833E0,4.435276794E0,-9.892628174E0,-2.674787750E0,3.010788833E0,-8.942786455E-1,-5.347123146E-1,-1.488422990E0
3.017012833E0,4.217180328E0,-1.011267059E1,-1.906136169E0,3.020749833E0,-7.416198254E-1,-9.610818624E-1,-1.640480518E0
3.026973833E0,3.839665375E0,-1.006881180E1,-2.214794312E0,3.030710833E0,-7.164673209E-1,-1.351691961E0,-1.674597144E0
3.036933833E0,3.176694031E0,-9.655521240E0,-2.676284637E0,3.040670833E0,-7.544412017E-1,-1.754368782E0,-1.514504433E0
3.046894833E0,1.993105316E0,-8.832832031E0,-2.680326233E0,3.050631833E0,-7.312059402E-1,-2.063714504E0,-1.284869075E0
3.056855833E0,1.368454285E0,-7.452103271E0,-1.962269440E0,3.060592833E0,-6.099075079E-1,-2.279055119E0,-1.156859517E0
3.066816833E0,6.370751953E-1,-6.454577637E0,-1.115031281E0,3.070553833E0,-4.775041640E-1,-2.308215141E0,-1.073560357E0
3.076776833E0,-3.272195435E-1,-5.983806610E0,-9.812095642E-1,3.080513833E0,-3.946073055E-1,-2.256844997E0,-1.040218472E0
3.086737833E0,-8.265811157E-1,-5.538931732E0,-1.147513733E0,3.090474833E0,-3.091731071E-1,-2.133771181E0,-1.028617740E0
3.096698833E0,-1.164727936E0,-5.264701996E0,-1.265767822E0,3.100435833E0,-2.075116038E-1,-1.930307746E0,-9.503667355E-1
3.106658833E0,-1.274000702E0,-5.252876587E0,-1.597478027E0,3.110395833E0,-4.049439356E-2,-1.766061068E0,-8.833075166E-1
3.116619833E0,-8.015830994E-1,-5.265151062E0,-1.776954803E0,3.120356833E0,1.377175897E-1,-1.554656982E0,-7.799004912E-1
3.126580833E0,-6.209088135E-1,-5.604794769E0,-1.811532898E0,3.130317833E0,2.767031789E-1,-1.345055819E0,-6.164822578E-1
3.136541833E0,-4.758604431E-1,-5.923182678E0,-1.816472626E0,3.140278833E0,3.887113929E-1,-1.141064405E0,-4.283296764E-1
3.146501833E0,-2.177970886E-1,-6.254443817E0,-1.550026703E0,3.150238833E0,4.699505866E-1,-8.651942015E-1,-2.358733863E-1
3.156462833E0,-3.218307495E-2,-6.575675812E0,-1.285676422E0,3.160199833E0,5.551572442E-1,-5.748387575E-1,-6.997676194E-2
3.166423833E0,5.643264771E-2,-6.737040253E0,-9.957293701E-1,3.170160833E0,6.421621442E-1,-2.195166349E-1,8.259227127E-2
3.176384833E0,-9.924362183E-2,-6.819518738E0,-7.346722412E-1,3.180121833E0,7.221197486E-1,1.043501496E-1,2.049746960E-1
3.186344833E0,-1.954934692E-1,-6.941515045E0,-1.136287079E0,3.190081833E0,7.504783869E-1,2.774111629E-1,2.883622646E-1
3.196305833E0,-2.071691895E-1,-7.175777893E0,-2.242935791E0,3.200042833E0,7.086483836E-1,2.650673985E-1,3.246190548E-1
3.206266833E0,-1.131646729E-1,-7.480993195E0,-3.693868561E0,3.210003833E0,6.332796216E-1,9.633056819E-2,3.299267590E-1
3.216226833E0,5.718109131E-2,-7.862400055E0,-5.259163513E0,3.219963833E0,5.391045213E-1,-2.146493345E-1,2.945897281E-1
3.226187833E0,6.614744568E-1,-8.390501862E0,-6.781048737E0,3.229924833E0,4.403020144E-1,-5.685767531E-1,2.138735801E-1
3.236148833E0,1.400487671E0,-9.241033173E0,-7.878117371E0,3.239885833E0,2.898214161E-1,-8.129485846E-1,1.039508209E-1
3.246109833E0,2.179467773E0,-1.025921585E1,-8.658744049E0,3.249846833E0,1.044326648E-1,-9.321684241E-1,-3.346855938E-2
3.256069833E0,2.976260834E0,-1.124850861E1,-8.911717987E0,3.259806833E0,-6.684324145E-2,-8.485665321E-1,-1.765009463E-1
3.266030833E0,3.620970154E0,-1.171658524E1,-8.564739532E0,3.269767833E0,-2.304449528E-1,-7.048578262E-1,-2.929897606E-1
3.275991833E0,3.943699036E0,-1.151974457E1,-7.978708191E0,3.279728833E0,-3.599077761E-1,-6.132119894E-1,-3.438414037E-1
3.285952833E0,3.790866852E0,-1.072998688E1,-6.956483917E0,3.289689833E0,-3.996914029E-1,-5.813608170E-1,-3.519382179E-1
3.295912833E0,3.573518829E0,-9.484726410E0,-5.592071228E0,3.299649833E0,-3.314657807E-1,-5.464645624E-1,-3.427667916E-1
3.305873833E0,3.177592163E0,-8.189170532E0,-4.399800568E0,3.309610833E0,-2.061771005E-1,-4.552954733E-1,-2.616951168E-1
3.315834833E0,2.680625610E0,-6.903793488E0,-3.544928284E0,3.319571833E0,-2.900821157E-2,-2.830104530E-1,-1.789401472E-1
3.325795833E0,2.370320892E0,-5.764063568E0,-3.496728516E0,3.329532833E0,3.443121016E-1,-6.410846859E-2,-1.484868973E-1
3.335755833E0,2.079026642E0,-5.354215851E0,-3.122506714E0,3.339492833E0,7.590644360E-1,5.473962054E-2,-1.146673635E-1
3.345716833E0,1.605710907E0,-6.086343384E0,-2.709814911E0,3.349453833E0,1.074052453E0,1.481081843E-1,1.218858548E-2
3.355677833E0,1.398990784E0,-7.648494873E0,-2.082020416E0,3.359414833E0,1.295214653E0,2.671160400E-1,1.680491418E-1
3.365637833E0,1.320254517E0,-9.266031189E0,-1.562450867E0,3.369374833E0,1.496830702E0,3.950026333E-1,3.279612958E-1
3.375598833E0,4.399351501E-1,-1.063238983E1,-9.910890198E-1,3.379335833E0,1.692334652E0,4.532742798E-1,5.259118080E-1
3.385559833E0,-1.301992493E0,-1.291738815E1,-1.218316498E0,3.389296833E0,1.832300544E0,1.898210645E-1,7.923493385E-1
3.395520833E0,-3.178639984E0,-1.761297363E1,-2.759511566E0,3.399257833E0,1.947406530E0,5.190045759E-2,1.177296042E0
3.405480833E0,-4.873864746E0,-2.333931564E1,-2.440824280E0,3.409217833E0,1.488249898E0,3.000141382E-1,1.329386711E0
3.415441833E0,-5.248984680E0,-2.565065918E1,-5.822442169E0,3.419178833E0,4.804837406E-1,3.534871340E-1,1.082519054E0
3.425402833E0,-5.089865570E0,-2.233954468E1,-6.978637848E0,3.429139833E0,-3.829977512E-1,3.142097592E-1,2.618966401E-1
3.435363833E0,-2.705473938E0,-1.454360641E1,-2.624642029E0,3.439100833E0,-8.605659604E-1,-1.301037371E-1,-3.634060621E-1
3.445323833E0,-2.376607819E0,-9.133706360E0,-7.923023987E-1,3.449060833E0,-1.204914689E0,-6.473223567E-1,-2.834619880E-1
3.455284667E0,-2.360142059E0,-6.575226746E0,8.322692871E-2,3.459021667E0,-1.393688440E0,-9.618946314E-1,5.475109816E-2
3.465245666E0,-9.984237671E-1,-4.902904358E0,1.898651733E0,3.468982667E0,-1.352767706E0,-1.123253942E0,4.439475834E-1
3.475205666E0,7.708969116E-2,-4.074227600E0,3.650758209E0,3.478942667E0,-1.022598267E0,-1.027223587E0,7.548464537E-1
3.485166667E0,9.720785522E-1,-3.443589020E0,4.786446533E0,3.488903666E0,-4.697699845E-1,-8.448777199E-1,9.262022376E-1
3.495127667E0,1.735041962E0,-2.970872040E0,4.119283905E0,3.498864667E0,1.542134881E-1,-7.398275733E-1,1.028825164E0
3.505088666E0,1.716929626E0,-3.457959137E0,3.033292236E0,3.508825667E0,8.047313690E-1,-5.140280128E-1,1.109428883E0
3.515048666E0,1.246757355E0,-5.007237396E0,3.382815399E0,3.518785667E0,1.473982453E0,-1.220710799E-1,1.098615050E0
3.525009667E0,1.387015686E0,-7.147486725E0,3.680845642E0,3.528746666E0,2.068815947E0,3.295962512E-1,9.115252495E-1
3.534970667E0,1.852098541E0,-9.645941162E0,3.681444397E0,3.538707667E0,2.557613611E0,9.433412552E-1,5.627751350E-1
3.544931666E0,1.883982239E0,-1.345357315E1,3.624263306E0,3.548668667E0,2.668130398E0,1.549870849E0,7.082746923E-2
3.554891666E0,9.713301086E-1,-1.712019836E1,1.817670135E0,3.558628667E0,2.459117651E0,1.912202120E0,-1.856533140E-1
3.564852667E0,-1.723665619E0,-1.710253510E1,3.427871704E-2,3.568589666E0,1.969822764E0,2.197053671E0,1.002010778E-1
3.574813667E0,-4.756658478E0,-1.519729706E1,-3.447331238E-1,3.578550667E0,1.495788455E0,2.523602962E0,5.117805004E-1
3.584773667E0,-5.572611694E0,-1.254735764E1,-1.678160248E0,3.588510667E0,1.096333742E0,2.267088652E0,7.514002919E-1
3.594734666E0,-5.174439697E0,-9.784552917E0,-5.794450378E0,3.598471667E0,7.094460726E-1,1.515150547E0,8.416025043E-1
3.604695667E0,-3.993844757E0,-7.657027130E0,-8.089178467E0,3.608432666E0,3.454334736E-1,9.368360043E-1,8.125135899E-1
3.614656667E0,-1.873054962E0,-6.576873322E0,-6.706354065E0,3.618393667E0,9.320925176E-2,9.145570397E-1,7.406763434E-1
3.624616667E0,-7.259902954E-2,-6.784940643E0,-3.669020233E0,3.628353667E0,-7.373153418E-2,1.109490871E0,6.888823509E-1
3.634577666E0,1.045575714E0,-7.296427002E0,-1.919308777E0,3.638314667E0,-2.245827317E-1,1.210704803E0,5.823402405E-1
3.644538667E0,1.659598846E0,-7.481591949E0,-1.169817352E0,3.648275666E0,-3.421834111E-1,1.224873424E0,4.463249147E-1
3.654499667E0,1.584006042E0,-7.736811218E0,-9.804611206E-2,3.658236667E0,-3.199345767E-1,1.235903144E0,3.439375758E-1
3.664459667E0,1.006357269E0,-8.129444733E0,1.411265259E0,3.668196667E0,-1.405496448E-1,1.336386323E0,3.077236414E-1
3.674420666E0,2.866539001E-1,-8.677155762E0,2.847678223E0,3.678157667E0,1.579381824E-1,1.439864516E0,3.552635014E-1
3.684381667E0,-1.802252197E-1,-9.213340759E0,3.705095215E0,3.688118666E0,5.473498702E-1,1.456598282E0,4.489079714E-1
3.694342667E0,-2.845582581E-1,-9.509425049E0,3.932472382E0,3.698079667E0,9.552981853E-1,1.368708134E0,5.454704762E-1
3.704302667E0,2.544708252E-2,-9.392667847E0,3.499123535E0,3.708039667E0,1.354767084E0,1.311150312E0,6.198464036E-1
3.714263666E0,3.158432007E-1,-8.980574799E0,2.608475647E0,3.718000667E0,1.715933681E0,1.269538879E0,6.918781996E-1
3.724224667E0,5.284011841E-1,-8.487350464E0,6.015989685E-1,3.727961666E0,1.940803766E0,1.051359057E0,7.837649584E-1
3.734184667E0,9.451345825E-1,-8.311615906E0,-2.780617676E0,3.737921667E0,1.886946797E0,7.956578135E-1,8.793221712E-1
3.744145667E0,1.253343658E0,-8.178243256E0,-6.178851013E0,3.747882667E0,1.449585676E0,7.421112657E-1,9.281403422E-1
3.754106666E0,1.701661377E0,-8.346792755E0,-8.279283142E0,3.757843667E0,7.777754068E-1,8.124148846E-1,9.235773683E-1
3.764067667E0,2.218686218E0,-8.923543396E0,-7.981552277E0,3.767804666E0,1.277987361E-1,7.237989902E-1,8.448340893E-1
3.774027667E0,2.882855072E0,-9.177116089E0,-5.846092987E0,3.777764666E0,-2.396963090E-1,4.853372872E-1,6.930370331E-1
3.783988667E0,3.231929169E0,-9.099727020E0,-3.089275818E0,3.787725667E0,-3.281688988E-1,2.931244373E-1,5.300656557E-1
3.793949666E0,2.992277527E0,-9.070238342E0,-1.297801208E0,3.797686667E0,-2.451133281E-1,2.356996536E-1,3.924162686E-1
3.803909666E0,2.616109772E0,-9.047186279E0,-3.677851868E-1,3.807646667E0,-3.694120795E-2,2.857633531E-1,2.592683136E-1
3.813870667E0,2.059716797E0,-9.283844147E0,1.567240906E-1,3.817607666E0,2.061531991E-1,3.627922535E-1,1.841369569E-1
3.823831667E0,1.037193146E0,-9.930050354E0,-8.846603394E-2,3.827568667E0,4.120190144E-1,3.543364704E-1,1.659763306E-1
3.833792666E0,5.748046875E-2,-1.064690964E1,-8.634045410E-1,3.837529667E0,5.141768456E-1,3.116513491E-1,1.557266265E-1
3.843752666E0,-1.495390320E-1,-1.095496902E1,-1.965562592E0,3.847489667E0,4.592858851E-1,3.518560231E-1,1.218331009E-1
3.853713667E0,4.076023865E-1,-1.090781708E1,-3.353775787E0,3.857450666E0,2.852080464E-1,4.446382225E-1,6.758347899E-2
3.863674667E0,1.091979218E0,-1.067190765E1,-4.253554688E0,3.867411667E0,9.031898528E-2,5.285525322E-1,6.465801969E-3
3.873635666E0,1.721420288E0,-1.071082672E1,-4.629572754E0,3.877372667E0,-9.338661283E-2,4.821333289E-1,-4.983878508E-2
3.883595666E0,2.010618896E0,-1.076291840E1,-4.136647797E0,3.887332667E0,-1.566404104E-1,4.103443623E-1,-9.451144934E-2
3.893556667E0,2.111060028E0,-1.065454376E1,-3.023113403E0,3.897293666E0,-1.259123683E-1,3.147433400E-1,-1.777566522E-1
3.903517667E0,2.264940033E0,-1.048015640E1,-2.312091980E0,3.907254667E0,-7.449045032E-2,2.212916911E-1,-3.025960624E-1
3.913477667E0,2.033970337E0,-1.058014847E1,-2.022593994E0,3.917214666E0,-9.380878508E-2,1.969001293E-1,-4.322812259E-1
3.923438666E0,1.381926270E0,-1.108774292E1,-1.784588928E0,3.927175667E0,-2.220072299E-1,1.951248646E-1,-5.751352906E-1
3.933399667E0,6.438111877E-1,-1.157438095E1,-1.617985382E0,3.937136666E0,-3.884622455E-1,2.051982135E-1,-7.257730365E-1
3.943360667E0,8.173004150E-2,-1.170700516E1,-1.532962189E0,3.947097667E0,-5.515046716E-1,1.883150935E-1,-8.831347227E-1
3.953320667E0,-1.014889526E-1,-1.152797745E1,-1.535207520E0,3.957057666E0,-7.374212146E-1,1.108570918E-1,-1.033284783E0
3.963281666E0,2.251318359E-1,-1.126033401E1,-1.021026764E0,3.967018667E0,-8.849366307E-1,-7.473817095E-3,-1.171175003E0
3.973242667E0,3.890409851E-1,-1.094658646E1,-2.866539001E-1,3.976979666E0,-9.396652579E-1,-9.602139145E-2,-1.260021210E0
3.983203667E0,-1.203497314E-1,-1.064586182E1,1.956431580E-1,3.986940667E0,-9.306035638E-1,-1.740964800E-1,-1.322768211E0
3.993163667E0,-9.074130249E-1,-1.062430664E1,1.812730408E-1,3.996900667E0,-9.410297275E-1,-2.301998436E-1,-1.345908880E0
4.003124666E0,-1.758094025E0,-1.093476105E1,-1.074765015E-1,4.006861667E0,-1.036371469E0,-2.255156040E-1,-1.290959001E0
4.013085667E0,-2.628983002E0,-1.146585663E1,-5.572911072E-1,4.016822666E0,-1.191148996E0,-3.052810580E-2,-1.183514595E0
4.023045667E0,-3.405867462E0,-1.231818420E1,-1.094224548E-1,4.026782667E0,-1.261504173E0,3.051106334E-1,-1.026012540E0
4.033006667E0,-4.154311066E0,-1.337962692E1,6.231541443E-1,4.036743667E0,-1.251996875E0,5.840722919E-1,-8.176793456E-1
4.042967666E0,-4.665947113E0,-1.428644119E1,4.993615723E-1,4.046704667E0,-1.189721465E0,7.319387197E-1,-6.043404341E-1
4.052928667E0,-4.641847229E0,-1.500838989E1,2.167492676E-1,4.056665666E0,-1.106709361E0,8.259968162E-1,-4.388912618E-1
4.062888667E0,-3.927233276E0,-1.524639496E1,-4.326004028E-1,4.066625667E0,-1.109110236E0,8.232316375E-1,-4.018821120E-1
4.072849667E0,-2.596650238E0,-1.443957275E1,-1.953437805E0,4.076586667E0,-1.225291014E0,7.995630503E-1,-4.596076608E-1
4.082810666E0,-1.985171814E0,-1.334953949E1,-2.673590240E0,4.086547667E0,-1.399667382E0,9.870897532E-1,-4.961590171E-1
4.092771667E0,-1.925296326E0,-1.272174500E1,-2.432292023E0,4.096508666E0,-1.563070774E0,1.299353838E0,-4.557437897E-1
4.102731667E0,-1.367855530E0,-1.207284439E1,-2.369871826E0,4.106468667E0,-1.668983579E0,1.519384980E0,-4.568404555E-1
4.112692667E0,-9.639953613E-2,-1.122261246E1,-2.429447937E0,4.116429667E0,-1.668429971E0,1.460486650E0,-5.262598991E-1
4.122653666E0,1.179247742E0,-1.040142014E1,-2.362686768E0,4.126390667E0,-1.542737842E0,1.042983174E0,-6.346851587E-1
4.132613667E0,2.323168945E0,-9.841584320E0,-2.362237701E0,4.136350667E0,-1.379559636E0,3.409442008E-1,-7.808613777E-1
4.142574667E0,3.587439880E0,-9.517807617E0,-2.265538788E0,4.146311667E0,-1.157417417E0,-4.279348850E-1,-1.083976269E0
4.152535667E0,4.991669769E0,-9.311087494E0,-1.788480835E0,4.156272667E0,-1.012903929E0,-9.416475296E-1,-1.363873243E0
4.162496666E0,4.714745636E0,-9.618248749E0,-1.788031769E0,4.166233667E0,-9.889807701E-1,-1.123678565E0,-1.501233459E0
4.172456666E0,3.869004364E0,-9.617350616E0,-2.348166962E0,4.176193667E0,-1.048372746E0,-1.345489383E0,-1.554354072E0
4.182417667E0,3.319197693E0,-8.969198456E0,-3.108585663E0,4.186154667E0,-1.102033496E0,-1.618447185E0,-1.461225152E0
4.192378667E0,2.077529755E0,-8.143964539E0,-2.935096436E0,4.196115667E0,-1.044690490E0,-1.952209234E0,-1.254140735E0
4.202338667E0,1.068927155E0,-7.117998047E0,-2.130369873E0,4.206075666E0,-8.769587874E-1,-2.200038195E0,-1.102434516E0
4.212299666E0,6.993457031E-1,-6.237379303E0,-1.141077118E0,4.216036667E0,-6.706092358E-1,-2.250705719E0,-1.047389269E0
4.222260667E0,3.037184143E-1,-5.812712402E0,-7.170089722E-1,4.225997666E0,-5.205334425E-1,-2.172149658E0,-1.017541409E0
4.232221667E0,-4.165837097E-1,-5.707032166E0,-7.946974182E-1,4.235958667E0,-4.070007205E-1,-2.002540112E0,-9.667603374E-1
4.242181667E0,-9.288185120E-1,-5.639522552E0,-8.437953186E-1,4.245918666E0,-2.841661572E-1,-1.796293020E0,-9.103005528E-1
4.252142666E0,-1.208137665E0,-5.657335510E0,-8.419990540E-1,4.255879667E0,-1.219098940E-1,-1.544496894E0,-8.259055018E-1
4.262103667E0,-1.158291321E0,-5.720204773E0,-8.054750061E-1,4.265840666E0,7.395255566E-2,-1.257057190E0,-7.215657830E-1
4.272064667E0,-9.798623657E-1,-5.752238159E0,-7.673043823E-1,4.275801667E0,2.569794655E-1,-9.098377228E-1,-5.842309594E-1
4.282024667E0,-7.908055115E-1,-5.623655548E0,-8.243357849E-1,4.285761666E0,4.026359916E-1,-5.952006578E-1,-4.561542571E-1
4.291985666E0,-3.890409851E-1,-5.517526245E0,-9.072633362E-1,4.295722667E0,5.159192085E-1,-3.282053173E-1,-3.087216914E-1
4.301946667E0,-3.320095825E-1,-5.525759125E0,-7.012916565E-1,4.305683666E0,5.923697948E-1,-2.616957389E-2,-1.154912487E-1
4.311906666E0,-4.390370178E-1,-5.561235352E0,-4.245172119E-1,4.315643667E0,6.508765221E-1,2.529240549E-1,9.909798205E-2
4.321867667E0,-5.104385376E-1,-5.641917572E0,-4.195774841E-1,4.325604666E0,7.232545614E-1,4.697484970E-1,2.751225531E-1
4.331828666E0,-5.291496277E-1,-5.883066101E0,-8.592132568E-1,4.335565667E0,7.898808122E-1,5.596306324E-1,3.991528749E-1
4.341789667E0,-5.496569824E-1,-6.280789032E0,-2.241438904E0,4.345526666E0,8.123014569E-1,4.896081686E-1,4.744668007E-1
4.351749667E0,-2.055226135E-1,-6.934479675E0,-4.105961609E0,4.355486667E0,7.762961984E-1,2.276187241E-1,4.804687202E-1
4.361710667E0,7.210505676E-1,-7.850874023E0,-5.853876801E0,4.365447666E0,6.840839386E-1,-1.718221456E-1,4.027363658E-1
4.371671666E0,2.115401001E0,-8.879834290E0,-7.064409485E0,4.375408667E0,4.798654020E-1,-5.830689073E-1,3.071614206E-1
4.381632667E0,3.237916718E0,-1.003977219E1,-7.913743286E0,4.385369666E0,2.213385105E-1,-8.454475403E-1,1.715181321E-1
4.391592667E0,4.635560303E0,-1.126617188E1,-8.100554810E0,4.395329667E0,1.658696309E-2,-8.638380170E-1,-2.614914253E-2
4.401553667E0,5.845194855E0,-1.238958572E1,-7.621550903E0,4.405290667E0,-1.229054183E-1,-7.507697344E-1,-2.370307446E-1
4.411514666E0,6.184389496E0,-1.264300873E1,-7.193590851E0,4.415251667E0,-2.776942551E-1,-6.582592130E-1,-4.338291585E-1
4.421474667E0,5.806874542E0,-1.165162033E1,-6.979236603E0,4.425211667E0,-4.101303518E-1,-6.719279289E-1,-5.333458781E-1
4.431435667E0,4.682562561E0,-1.001088226E1,-6.497987366E0,4.435172667E0,-4.581423998E-1,-6.700624228E-1,-5.198214650E-1
4.441396667E0,3.536994781E0,-8.382867737E0,-5.655090179E0,4.445133667E0,-3.625681996E-1,-5.624115467E-1,-4.330626130E-1
4.451358208E0,2.450404358E0,-7.310497742E0,-4.703518982E0,4.455095208E0,-1.765162200E-1,-3.854325414E-1,-2.797771692E-1
4.461318208E0,1.292711792E0,-7.346273346E0,-4.176914062E0,4.465055208E0,1.065828577E-1,-2.319585830E-1,-8.696454763E-2
4.471279208E0,4.537065125E-1,-9.051826630E0,-3.387605438E0,4.475016208E0,4.081189036E-1,-1.605862975E-1,5.071627721E-2
4.481240208E0,2.136058044E-1,-1.190803711E1,-3.074157257E0,4.484977208E0,6.995584369E-1,-1.330074072E-1,7.232010365E-2
4.491200208E0,5.441184998E-1,-1.548948944E1,-2.045496368E0,4.494937208E0,1.095821023E0,-1.442043334E-1,8.992135525E-2
4.501161208E0,2.140548706E-1,-1.982282822E1,1.393601990E-1,4.504898208E0,1.433877349E0,3.297204524E-2,1.879003793E-1
4.511122208E0,-5.292993164E-1,-2.247650986E1,8.662486267E-1,4.514859208E0,1.322897911E0,2.253532410E-1,1.686248332E-1
4.521083208E0,-8.526269531E-1,-2.093396759E1,-1.885778503E0,4.524820208E0,6.546804905E-1,4.323285222E-1,-8.245532960E-2
4.531043208E0,-1.343755646E0,-1.590577377E1,-4.954996033E0,4.534780208E0,-1.659535617E-1,7.004612088E-1,-3.731897771E-1
4.541004208E0,-2.224224701E0,-1.083506836E1,-5.269042969E0,4.544741208E0,-6.215852499E-1,8.516054153E-1,-3.483084142E-1
4.550965208E0,-3.145409088E0,-7.641908569E0,-3.605851593E0,4.554702208E0,-7.237862349E-1,9.148237705E-1,-7.447090000E-2
4.560926208E0,-3.352428589E0,-4.986430664E0,-2.559078369E0,4.564663208E0,-6.689280272E-1,8.387772441E-1,2.245307118E-1
4.570886208E0,-2.914439392E0,-3.039728851E0,-2.072739716E0,4.574623208E0,-5.456907153E-1,4.251730144E-1,5.035908818E-1
4.580847208E0,-2.369123383E0,-2.408641205E0,-1.404678955E0,4.584584208E0,-3.238893747E-1,-1.519800723E-1,8.293713331E-1
4.590808208E0,-1.870061188E0,-3.071762238E0,-1.040336609E-1,4.594545208E0,-2.756612934E-2,-6.924354434E-1,1.241511106E0
4.600768208E0,-1.315913544E0,-4.701872406E0,1.331481171E0,4.604505208E0,2.864594460E-1,-1.221508861E0,1.620559812E0
4.610729208E0,-4.472698975E-1,-6.353388062E0,2.088307343E0,4.614466208E0,6.279675364E-1,-1.735611320E0,1.869559765E0
4.620690208E0,7.203021240E-1,-8.100405121E0,2.630330200E0,4.624427208E0,9.684742689E-1,-2.110913277E0,1.912260890E0
4.630651208E0,2.178869019E0,-9.873018951E0,3.152145081E0,4.634388208E0,1.306638718E0,-2.049285173E0,1.708694577E0
4.640611208E0,3.705095215E0,-1.138801849E1,3.658542023E0,4.644348208E0,1.555580974E0,-1.448368311E0,1.278776765E0
4.650572208E0,4.816983032E0,-1.264001495E1,3.497626648E0,4.654309208E0,1.669228792E0,-5.468484759E-1,7.530602217E-1
4.660533208E0,4.743186493E0,-1.366538269E1,2.503992920E0,4.664270208E0,1.707739472E0,3.431308866E-1,3.378196359E-1
4.670494208E0,3.363056488E0,-1.383527939E1,9.309141541E-1,4.674231208E0,1.614668965E0,1.016943216E0,1.314527094E-1
4.680454208E0,9.885443115E-1,-1.236952744E1,-1.171014862E0,4.684191208E0,1.352963924E0,1.389511466E0,1.369553357E-1
4.690415208E0,-8.234376526E-1,-1.075498489E1,-2.495610352E0,4.694152208E0,1.035037756E0,1.619455814E0,2.458925396E-1
4.700376208E0,-2.001038818E0,-1.019589752E1,-2.139201508E0,4.704113208E0,8.219195604E-1,1.795986176E0,3.386280835E-1
4.710336208E0,-2.693049774E0,-9.917626190E0,-1.310824127E0,4.714073208E0,7.388753891E-1,1.631602645E0,3.722687960E-1
4.720297208E0,-2.634671173E0,-9.406588898E0,-2.479144592E0,4.724034208E0,7.219176888E-1,9.006112218E-1,3.414850533E-1
4.730258208E0,-1.444346466E0,-8.703351288E0,-5.085973663E0,4.733995208E0,6.145133972E-1,1.174667552E-1,2.708611190E-1
4.740219208E0,4.004173279E-1,-8.420888672E0,-6.158792725E0,4.743956208E0,3.987329006E-1,-8.701954037E-2,2.410829961E-1
4.750179208E0,1.282982025E0,-8.414302368E0,-4.849615173E0,4.753916208E0,1.807738543E-1,1.079278812E-1,2.088193893E-1
4.760140208E0,1.725012817E0,-8.189320221E0,-3.248245239E0,4.763877208E0,-9.902083315E-3,2.499646544E-1,1.393242031E-1
4.770101208E0,1.870959320E0,-8.095615082E0,-2.441423035E0,4.773838208E0,-1.402508020E-1,3.030550778E-1,9.185216576E-2
4.780061208E0,1.184187469E0,-8.251291351E0,-1.383123779E0,4.783798208E0,-1.309688836E-1,3.989011943E-1,1.093541905E-1
4.790022208E0,1.562750244E-1,-8.485703888E0,2.356100464E-1,4.793759208E0,-2.038333798E-3,5.470405817E-1,1.567206383E-1
4.799983208E0,-7.156617737E-1,-8.723858643E0,1.468446350E0,4.803720208E0,1.626062691E-1,6.499459147E-1,2.288406342E-1
4.809944208E0,-1.285676422E0,-8.835376740E0,2.047442322E0,4.813681208E0,3.505596519E-1,6.822711825E-1,3.252032995E-1
4.819904208E0,-1.480720825E0,-8.807834015E0,2.345921631E0,4.823641208E0,5.579692721E-1,7.181690335E-1,4.530275464E-1
4.829865208E0,-1.438957672E0,-8.794811096E0,2.445764008E0,4.833602208E0,8.025638461E-1,8.031066060E-1,5.929095149E-1
4.839826208E0,-1.229692841E0,-8.593180389E0,2.339485016E0,4.843563208E0,1.077989578E0,8.059895039E-1,6.912220120E-1
4.849787208E0,-6.680607605E-1,-8.266110535E0,1.224004669E0,4.853524208E0,1.279374957E0,5.639823675E-1,7.474775314E-1
4.859747208E0,-6.930587769E-2,-8.273894348E0,-8.746311951E-1,4.863484208E0,1.323085666E0,2.360222936E-1,7.925975919E-1
4.869708208E0,3.522175598E-1,-8.533304901E0,-2.797981567E0,4.873445208E0,1.186545610E0,6.811241806E-2,8.242239952E-1
4.879669208E0,9.454339600E-1,-9.016799469E0,-4.234544220E0,4.883406208E0,9.132453203E-1,1.235533059E-1,8.189424276E-1
4.889629208E0,1.702858887E0,-9.547296295E0,-4.977299652E0,4.893366208E0,5.823482871E-1,3.266217411E-1,7.605416179E-1
4.899590208E0,2.334096222E0,-9.829160156E0,-4.851860504E0,4.903327208E0,2.745965421E-1,5.020340085E-1,6.692053080E-1
4.909551208E0,2.481090546E0,-9.764494629E0,-3.967499542E0,4.913288208E0,7.290711999E-2,5.538198352E-1,5.742760301E-1
4.919512208E0,2.162552948E0,-9.515412598E0,-2.514920197E0,4.923249208E0,-1.290680491E-3,4.991057217E-1,4.667927325E-1
4.929472208E0,1.683399353E0,-9.300309906E0,-1.358125763E0,4.933209208E0,-3.869419452E-3,3.997772932E-1,3.809156418E-1
4.939433208E0,1.085392914E0,-9.213939514E0,-7.605683899E-1,4.943170208E0,4.161977023E-2,3.409485817E-1,3.331513107E-1
4.949394208E0,5.554948425E-1,-9.211245117E0,-2.926414490E-1,4.953131208E0,1.244723052E-1,2.852524519E-1,3.289710581E-1
4.959354208E0,3.336561584E-1,-9.202413483E0,-2.142045593E-1,4.963091208E0,1.924936920E-1,1.472056359E-1,3.486640751E-1
4.969315208E0,6.044430542E-1,-9.173373871E0,-5.031037903E-1,4.973052208E0,2.566117942E-1,7.723453455E-3,3.670108914E-1
4.979276208E0,1.156045990E0,-9.153165894E0,-5.782475281E-1,4.983013208E0,3.240962923E-1,-8.493004739E-2,3.553435802E-1
4.989237208E0,1.950593719E0,-9.257798309E0,-7.354206848E-1,4.992974208E0,4.155683815E-1,-1.228957474E-1,2.913514972E-1
4.999197208E0,2.613415375E0,-9.259594574E0,-8.897497559E-1,5.002934208E0,5.106890202E-1,6.905385293E-3,2.322697937E-1
5.009158208E0,2.680775299E0,-9.510323181E0,-1.091829529E0,5.012895208E0,5.129607916E-1,1.200598776E-1,1.428209394E-1
5.019119208E0,2.867287445E0,-1.009051666E1,-2.008523254E0,5.022856208E0,4.715651572E-1,1.977837086E-1,3.970626369E-2
5.029080208E0,2.489622803E0,-1.051443512E1,-2.410736847E0,5.032817208E0,4.174355865E-1,2.509543896E-1,-3.707648814E-2
5.039040208E0,1.898352356E0,-1.099658249E1,-2.695594482E0,5.042777208E0,3.401059210E-1,2.364939600E-1,-1.053940281E-1
5.049001208E0,1.556163940E0,-1.139355698E1,-2.951262817E0,5.052738208E0,2.361885160E-1,1.928038895E-1,-1.866250932E-1
5.058962208E0,1.437760162E0,-1.150282974E1,-2.928659821E0,5.062699208E0,1.161686406E-1,1.529286504E-1,-2.805095315E-1
5.068922208E0,1.403780823E0,-1.142364441E1,-2.576591949E0,5.072659208E0,3.207201883E-2,1.079729870E-1,-3.979291618E-1
5.078883208E0,1.394051056E0,-1.143292511E1,-2.083666992E0,5.082620208E0,-1.219717599E-2,6.096792594E-2,-5.248935223E-1
5.088844208E0,1.243314514E0,-1.165251846E1,-1.675465851E0,5.092581208E0,-4.764638469E-2,-6.706987508E-3,-6.328310966E-1
5.098805208E0,1.132245483E0,-1.196866104E1,-1.385518799E0,5.102542208E0,-1.330928355E-1,-8.494506776E-2,-7.394850850E-1
5.108765208E0,1.262474670E0,-1.209380081E1,-8.936416626E-1,5.112502208E0,-2.581583560E-1,-1.433412582E-1,-8.475484252E-1
5.118726208E0,1.364861755E0,-1.205054077E1,-3.403921509E-1,5.122463208E0,-3.706713021E-1,-1.945735514E-1,-9.430211782E-1
5.128687208E0,1.305734711E0,-1.172990753E1,-1.487905884E-1,5.132424208E0,-4.619168043E-1,-2.319126874E-1,-1.054062366E0
5.138647208E0,1.064735870E0,-1.127994324E1,-2.984793091E-1,5.142384208E0,-5.679811835E-1,-2.297858894E-1,-1.158735275E0
5.148608208E0,5.096900940E-1,-1.070888077E1,-5.608836365E-1,5.152345208E0,-7.052533627E-1,-1.894442886E-1,-1.247066140E0
5.158569208E0,-2.046244812E-1,-9.987381134E0,-8.508306885E-1,5.162306208E0,-8.710987568E-1,-1.654271036E-1,-1.280728221E0
5.168530208E0,-9.138496399E-1,-9.366322632E0,-1.288221130E0,5.172267208E0,-1.044129729E0,-1.362503022E-1,-1.273266077E0
5.178490208E0,-1.674567719E0,-8.858728180E0,-1.582958221E0,5.182227208E0,-1.198223114E0,-4.877026007E-2,-1.256973624E0
5.188451208E0,-2.490071869E0,-8.656199341E0,-1.725910950E0,5.192188208E0,-1.324364066E0,1.706229746E-1,-1.203288794E0
5.198412208E0,-3.511996765E0,-9.148076477E0,-1.746418304E0,5.202149208E0,-1.452148676E0,4.972141385E-1,-1.086736321E0
5.208373208E0,-4.493356018E0,-1.017479141E1,-2.086660767E0,5.212110208E0,-1.543654442E0,9.314908385E-1,-8.951102495E-1
5.218333208E0,-5.458099823E0,-1.172631500E1,-1.714384918E0,5.222070208E0,-1.508146882E0,1.500285268E0,-5.959647894E-1
5.228294208E0,-6.451284485E0,-1.378483429E1,-6.607260132E-1,5.232031208E0,-1.322124600E0,2.126539946E0,-2.019648701E-1
5.238255208E0,-6.968309326E0,-1.553454575E1,4.002676392E-1,5.241992208E0,-1.089176536E0,2.551021099E0,8.508553356E-2
5.248215208E0,-5.782026215E0,-1.546074921E1,1.130149841E-1,5.251952208E0,-9.948990345E-1,2.268941164E0,7.190556079E-2
5.258176208E0,-3.349285126E0,-1.366747833E1,-1.729204102E0,5.261913208E0,-1.095913172E0,1.436539054E0,-4.530574754E-2
5.268137208E0,-2.096091156E0,-1.216250793E1,-2.720891876E0,5.271874208E0,-1.273707151E0,6.124736071E-1,-2.569534816E-2
5.278098208E0,-1.190474396E0,-1.136242172E1,-2.397713928E0,5.281835208E0,-1.442748308E0,8.050342090E-3,9.094590321E-3
5.288058208E0,5.379812622E-1,-1.078372513E1,-2.358046417E0,5.291795208E0,-1.608660579E0,-2.162519544E-1,-1.615915820E-2
5.298019208E0,2.059417419E0,-1.037267990E1,-2.477797394E0,5.301756208E0,-1.735299230E0,-1.303564906E-1,-1.417264044E-1
5.307980208E0,3.471281433E0,-1.009695328E1,-2.671494598E0,5.311717208E0,-1.832979679E0,1.358444691E-1,-4.681707919E-1
5.317940208E0,4.884342957E0,-9.909992065E0,-2.969524841E0,5.321677208E0,-1.749604583E0,4.668056071E-1,-8.091454506E-1
5.327901208E0,5.028942261E0,-1.005474106E1,-2.423610077E0,5.331638208E0,-1.441633821E0,6.706833243E-1,-1.079555631E0
5.337862208E0,4.607867889E0,-9.922416229E0,-2.086511078E0,5.341599208E0,-1.120680571E0,6.284362674E-1,-1.271480560E0
5.347823208E0,4.615951080E0,-9.292376404E0,-2.719694366E0,5.351560208E0,-8.880601525E-1,2.632005215E-1,-1.458233953E0
5.357783208E0,4.520449677E0,-8.795260162E0,-3.187471619E0,5.361520208E0,-7.564073205E-1,-2.297378182E-1,-1.456305504E0
5.367744208E0,3.086132355E0,-8.574618988E0,-3.130290527E0,5.371481208E0,-6.723629832E-1,-7.599427104E-1,-1.318382859E0
5.377705208E0,2.490071869E0,-8.127049713E0,-2.773432617E0,5.381442208E0,-5.853785872E-1,-9.967501760E-1,-1.210980773E0
5.387666208E0,1.745669861E0,-7.688761139E0,-1.982028351E0,5.391403208E0,-4.848966300E-1,-1.147099733E0,-1.138530493E0
5.397626208E0,7.961943054E-1,-7.111411743E0,-2.204465790E0,5.401363208E0,-3.515960872E-1,-1.387388945E0,-1.040051937E0
5.407587208E0,2.574645996E-2,-6.616690521E0,-2.142344971E0,5.411324208E0,-1.821562201E-1,-1.549894691E0,-8.702164292E-1
5.417548208E0,-6.066883850E-1,-6.137237549E0,-1.874252472E0,5.421285208E0,2.326801186E-3,-1.604158521E0,-6.616315842E-1
5.427508208E0,-8.171507263E-1,-5.583838348E0,-1.883383484E0,5.431245208E0,1.913014799E-1,-1.492189765E0,-4.438818097E-1
5.437469208E0,-6.017486572E-1,-5.097649384E0,-1.655407562E0,5.441206208E0,3.549705744E-1,-1.242251635E0,-2.292009145E-1
5.447430208E0,-4.152365112E-1,-4.849764862E0,-1.623074799E0,5.451167208E0,4.577400386E-1,-9.769731164E-1,-1.657969877E-2
5.457390708E0,-2.695893860E-1,-4.695435791E0,-1.758692780E0,5.461127708E0,5.107486844E-1,-6.875557303E-1,1.722482741E-1
5.467350708E0,1.523831177E-1,-4.636159058E0,-1.784289551E0,5.471087708E0,5.508068800E-1,-4.762780666E-1,3.083653450E-1
5.477311708E0,6.671626282E-1,-4.666845245E0,-2.117796021E0,5.481048708E0,6.032032371E-1,-3.731261194E-1,3.859704137E-1
5.487272708E0,9.876461792E-1,-4.921765137E0,-2.481240234E0,5.491009708E0,6.867153049E-1,-3.411003649E-1,4.449608326E-1
5.497232708E0,1.017583923E0,-5.184768219E0,-2.910996552E0,5.500969708E0,7.677323818E-1,-3.422146142E-1,4.856126606E-1
5.507193708E0,1.125509491E0,-5.253774719E0,-3.320395203E0,5.510930708E0,7.997999191E-1,-3.454795778E-1,5.104979873E-1
5.517154708E0,1.258133698E0,-5.389392700E0,-3.804937592E0,5.520891708E0,7.376377583E-1,-3.025161326E-1,5.353527069E-1
5.527115708E0,1.469194794E0,-5.855223999E0,-4.412823486E0,5.530852708E0,5.848838687E-1,-2.786189616E-1,5.265552402E-1
5.537075708E0,2.134561157E0,-6.925797729E0,-4.946763153E0,5.540812708E0,3.775860965E-1,-3.026483953E-1,4.529161155E-1
5.547036708E0,2.997366943E0,-8.427924042E0,-5.246739349E0,5.550773708E0,1.583840102E-1,-3.400756419E-1,3.009119332E-1
5.556997708E0,3.711531830E0,-1.004935226E1,-5.434149628E0,5.560734708E0,2.293803915E-2,-3.769218028E-1,6.906220317E-2
5.566958708E0,4.230802002E0,-1.184995789E1,-5.511389008E0,5.570695708E0,8.290086873E-3,-3.687186539E-1,-2.226946503E-1
5.576918708E0,4.397854614E0,-1.341345657E1,-5.580994263E0,5.580655708E0,8.258189261E-2,-3.925457001E-1,-5.286707878E-1
5.586879708E0,3.945794678E0,-1.409319305E1,-5.660628662E0,5.590616708E0,1.404474229E-1,-4.674162567E-1,-7.516243458E-1
5.596840708E0,2.881208496E0,-1.371073837E1,-5.899980927E0,5.600577708E0,9.883072227E-2,-5.306103826E-1,-8.207387328E-1
5.606800708E0,1.918410645E0,-1.254466324E1,-6.243666229E0,5.610537708E0,-4.764044285E-2,-5.413837433E-1,-7.775031924E-1
5.616761708E0,1.636696472E0,-1.036519547E1,-6.576723633E0,5.620498708E0,-2.043626755E-1,-4.881958961E-1,-6.482549310E-1
5.626722708E0,1.294058990E0,-7.962242432E0,-6.643484802E0,5.630459708E0,-2.131256163E-1,-4.159765244E-1,-4.466846585E-1
5.636683708E0,9.228309631E-1,-6.468798065E0,-6.129453735E0,5.640420708E0,-1.001921445E-1,-3.114868701E-1,-1.873263270E-1
5.646643708E0,6.870712280E-1,-6.602470093E0,-5.287304993E0,5.650380708E0,4.158692434E-2,-2.109308988E-1,2.820312604E-2
5.656604708E0,1.246008911E0,-8.523425446E0,-4.512516174E0,5.660341708E0,2.526485622E-1,-1.561225057E-1,1.645433903E-1
5.666565708E0,1.874102783E0,-1.142933258E1,-3.575315094E0,5.670302708E0,5.080523491E-1,-1.237731948E-1,2.052990943E-1
5.676525708E0,2.411934357E0,-1.424273209E1,-2.243085480E0,5.680262708E0,7.858973145E-1,-8.400527388E-2,1.319955736E-1
5.686486708E0,2.842738495E0,-1.687485855E1,-4.873864746E-1,5.690223708E0,1.015989304E0,1.022522151E-1,1.033333503E-2
5.696447708E0,2.456092529E0,-1.871573044E1,6.017486572E-1,5.700184708E0,1.067502141E0,3.053411245E-1,-7.081025094E-2
5.706408708E0,1.325942688E0,-1.858909378E1,1.604663086E-1,5.710145708E0,8.159476519E-1,3.608972728E-1,-1.504729986E-1
5.716368708E0,2.350112915E-2,-1.632639908E1,-2.359842682E0,5.720105708E0,3.283670545E-1,4.780249894E-1,-2.409080863E-1
5.726329708E0,-1.455872498E0,-1.296034882E1,-4.186045074E0,5.730066708E0,-4.900868982E-2,6.695262790E-1,-2.735844553E-1
5.736290708E0,-2.663261719E0,-9.809401245E0,-4.211192780E0,5.740027708E0,-2.321955562E-1,6.414741278E-1,-1.502167135E-1
5.746250708E0,-3.417094116E0,-7.507637787E0,-4.154610443E0,5.749987708E0,-3.053207397E-1,4.588210583E-1,1.608589143E-1
5.756211708E0,-4.091441803E0,-5.857020264E0,-3.747756500E0,5.759948708E0,-3.723328114E-1,7.812431455E-2,5.453078151E-1
5.766172708E0,-3.785478058E0,-5.021308136E0,-3.200494537E0,5.769909708E0,-3.665479422E-1,-4.136662483E-1,9.196332097E-1
5.776133708E0,-2.666105804E0,-5.079537048E0,-1.659598846E0,5.779870708E0,-2.323563099E-1,-8.525186777E-1,1.310577035E0
5.786093708E0,-1.379980316E0,-5.807024231E0,4.806504822E-1,5.789830708E0,-2.437365428E-2,-1.248962164E0,1.623625875E0
5.796054708E0,-1.091230774E-1,-6.375691681E0,1.657802582E0,5.799791708E0,1.846040636E-1,-1.613148451E0,1.823607922E0
5.806015708E0,7.249424744E-1,-6.989864502E0,2.345472565E0,5.809752708E0,4.280095398E-1,-1.895491362E0,1.894245505E0
5.815976708E0,1.657203827E0,-7.789801025E0,3.130440216E0,5.819713708E0,7.142122984E-1,-1.940706134E0,1.808245897E0
5.825936708E0,2.512076111E0,-8.600964203E0,3.638783112E0,5.829673708E0,9.941645265E-1,-1.721455336E0,1.589142084E0
5.835897708E0,3.287763062E0,-9.482481079E0,3.450325012E0,5.839634708E0,1.186810374E0,-1.256607056E0,1.200175166E0
5.845858708E0,3.990701294E0,-1.057595718E1,2.983745270E0,5.849595708E0,1.343959570E0,-4.452222288E-1,7.465302944E-1
5.855818708E0,3.567082214E0,-1.168305496E1,2.632575531E0,5.859555708E0,1.496476173E0,5.116826892E-1,3.878054023E-1
5.865779708E0,1.958527222E0,-1.220726486E1,1.678609314E0,5.869516708E0,1.613889098E0,1.258566260E0,2.062638700E-1
5.875740708E0,-1.496887207E-4,-1.175415710E1,5.878276062E-1,5.879477708E0,1.656949162E0,1.819624066E0,2.012917548E-1
5.885701708E0,-1.372944946E0,-1.129296616E1,2.139051819E-1,5.889438708E0,1.558314323E0,2.182343006E0,2.470765263E-1
5.895661708E0,-2.000739441E0,-1.093715607E1,-5.093907166E-1,5.899398708E0,1.381622910E0,2.073078394E0,2.285699546E-1
5.905622708E0,-1.973795471E0,-9.968370667E0,-3.249891815E0,5.909359708E0,1.113006592E0,1.206450701E0,1.879021376E-1
5.915583708E0,-1.362466736E0,-9.153614960E0,-7.164251862E0,5.919320708E0,7.341106534E-1,1.982336491E-1,1.496282518E-1
5.925543708E0,4.317022705E-1,-8.801397400E0,-8.344846802E0,5.929280708E0,3.534778953E-1,-1.597917825E-1,1.288363039E-1
5.935504708E0,1.777703247E0,-8.736731873E0,-6.162684631E0,5.939241708E0,9.506737441E-2,-2.252074145E-2,9.946776181E-2
5.945465708E0,2.369123383E0,-8.430319061E0,-3.841311951E0,5.949202708E0,-8.872848749E-2,6.325182319E-2,2.108960878E-3
5.955426708E0,2.622097321E0,-8.280630341E0,-2.927761688E0,5.959163708E0,-2.303900123E-1,1.399186160E-2,-6.267350167E-2
5.965386708E0,1.962419128E0,-8.516090698E0,-1.889520721E0,5.969123708E0,-2.564026415E-1,1.019065678E-1,-8.023747802E-2
5.975347708E0,8.360115051E-1,-8.766519928E0,6.885681152E-2,5.979084708E0,-1.398606002E-1,3.319008946E-1,-4.390344024E-2
5.985308708E0,-2.800675964E-1,-8.922196198E0,1.609902191E0,5.989045708E0,4.066849872E-2,5.100672841E-1,4.513676837E-2
5.995269708E0,-1.182540894E0,-8.914861450E0,2.219284973E0,5.999006708E0,2.308235317E-1,5.970799923E-1,1.407868564E-1
6.005229708E0,-1.553020477E0,-8.765172729E0,2.316432953E0,6.008966708E0,4.399782419E-1,5.938021541E-1,2.547578514E-1
6.015190708E0,-1.708996124E0,-8.565937042E0,2.178120575E0,6.018927708E0,6.798316240E-1,6.116389036E-1,3.844500780E-1
6.025151708E0,-1.757794647E0,-8.305478668E0,1.998643799E0,6.028888708E0,9.601742029E-1,5.939445496E-1,5.085027814E-1
6.035111708E0,-1.501677246E0,-8.057294769E0,1.226549377E0,6.038848708E0,1.205615759E0,3.331166506E-1,6.060141325E-1
6.045072708E0,-9.783654785E-1,-8.058342590E0,-6.173162842E-1,6.048809708E0,1.315728426E0,-6.963412464E-2,6.931774020E-1
6.055033708E0,-5.263055420E-1,-8.303832092E0,-2.479294281E0,6.058770708E0,1.264283061E0,-3.048423529E-1,7.610429525E-1
6.064994708E0,1.172062683E-1,-8.693920898E0,-3.782783661E0,6.068731708E0,1.044683814E0,-2.236952335E-1,8.000578880E-1
6.074954708E0,1.020428009E0,-9.172176361E0,-4.698878632E0,6.078691708E0,7.125757337E-1,6.919389963E-2,7.842442989E-1
6.084915708E0,2.115999756E0,-9.449399872E0,-4.879852295E0,6.088652708E0,3.713112175E-1,3.329143226E-1,7.159488201E-1
6.094876708E0,2.772833862E0,-9.377399597E0,-4.011058960E0,6.098613708E0,1.017228812E-1,4.823890328E-1,6.023913622E-1
6.104836708E0,2.729573822E0,-9.104966125E0,-2.731819153E0,6.108573708E0,-6.113569066E-2,4.754948020E-1,4.587961733E-1
6.114797708E0,2.222428436E0,-8.843609619E0,-1.685944061E0,6.118534708E0,-1.278920919E-1,4.358256757E-1,3.354729116E-1
6.124758708E0,1.402283936E0,-8.843310242E0,-8.050259399E-1,6.128495708E0,-1.083392277E-1,4.028431177E-1,2.637995481E-1
6.134719708E0,7.529342651E-1,-8.982969818E0,-5.837860107E-2,6.138456708E0,-2.261845954E-2,2.967225313E-1,2.336360663E-1
6.144679708E0,5.492079163E-1,-9.119934998E0,3.028202820E-1,6.148416708E0,8.601260185E-2,1.264826655E-1,2.515144348E-1
6.154640708E0,7.114704895E-1,-9.272467804E0,2.802172852E-1,6.158377708E0,2.285764068E-1,-4.552985355E-2,2.548423111E-1
6.164601708E0,1.334175568E0,-9.338330841E0,1.386117554E-1,6.168338708E0,3.884384632E-1,-1.445519775E-1,2.193575948E-1
6.174561708E0,2.096091156E0,-9.340576172E0,-1.148112488E-1,6.178298708E0,5.501719713E-1,-9.533916414E-2,1.530161351E-1
6.184522708E0,2.571951599E0,-9.459878082E0,-5.267546082E-1,6.188259708E0,6.208773851E-1,9.009378403E-2,8.128970116E-2
6.194483708E0,2.978057098E0,-1.006012985E1,-1.512155457E0,6.198220708E0,5.618926287E-1,2.859980464E-1,-1.697861939E-3
6.204444708E0,3.100203094E0,-1.059451859E1,-2.571652222E0,6.208181708E0,4.391689301E-1,4.320431054E-1,-8.458069712E-2
6.214404708E0,2.933599548E0,-1.115555191E1,-3.429667969E0,6.218141708E0,3.259771466E-1,4.663315713E-1,-1.817115098E-1
6.224365708E0,2.634222107E0,-1.160416901E1,-3.823948059E0,6.228102708E0,2.225740701E-1,4.425571859E-1,-2.575861812E-1
6.234326708E0,2.038011932E0,-1.193842392E1,-3.805686035E0,6.238063708E0,1.076834351E-1,3.426074386E-1,-3.230879605E-1
6.244287708E0,1.685494995E0,-1.197180450E1,-3.647465057E0,6.248024708E0,-1.739205606E-2,1.991032660E-1,-3.899464011E-1
6.254247708E0,1.720073090E0,-1.175146271E1,-3.087928619E0,6.257984708E0,-1.309756041E-1,6.734496355E-2,-4.705946445E-1
6.264208708E0,1.888921967E0,-1.159264297E1,-2.228865051E0,6.267945708E0,-1.925896555E-1,-7.875015587E-2,-5.799420476E-1
6.274169708E0,2.150128784E0,-1.167122955E1,-1.321302338E0,6.277906708E0,-2.526473999E-1,-2.450597733E-1,-7.224443555E-1
6.284129708E0,2.606529694E0,-1.194590836E1,-4.517605591E-1,6.287866708E0,-3.171982169E-1,-4.171269238E-1,-8.802710772E-1
6.294090708E0,2.937042389E0,-1.204530167E1,1.975891113E-2,6.297827708E0,-3.516728282E-1,-5.684943199E-1,-1.050296187E0
6.304051708E0,2.907254333E0,-1.169742508E1,5.508544922E-2,6.307788708E0,-3.868836164E-1,-6.163794398E-1,-1.219188809E0
6.314012708E0,2.323468323E0,-1.124581421E1,-4.236190796E-2,6.317749708E0,-4.695393443E-1,-6.105700135E-1,-1.342649698E0
6.323972708E0,1.370400238E0,-1.061307999E1,-3.926335144E-1,6.327709708E0,-6.084452271E-1,-5.956017971E-1,-1.422754645E0
6.333933708E0,3.797602844E-1,-9.841434631E0,-8.117619324E-1,6.337670708E0,-7.906304598E-1,-5.594505072E-1,-1.442483664E0
6.343894708E0,-6.750961304E-1,-9.298363953E0,-1.131497040E0,6.347631708E0,-9.748685956E-1,-4.456728697E-1,-1.404036999E0
6.353854708E0,-1.819167023E0,-8.949738922E0,-1.413660278E0,6.357591708E0,-1.171401381E0,-2.128151208E-1,-1.321499705E0
6.363815708E0,-3.027903442E0,-9.130263519E0,-1.793570251E0,6.367552708E0,-1.385599256E0,1.229073554E-1,-1.165220976E0
6.373776708E0,-4.275259552E0,-1.015024246E1,-2.379451904E0,6.377513708E0,-1.593093634E0,4.949253798E-1,-9.278761148E-1
6.383737708E0,-5.399272156E0,-1.202060303E1,-2.698588257E0,6.387474708E0,-1.664092422E0,8.872271776E-1,-5.368411541E-1
6.393697708E0,-6.662944336E0,-1.453237976E1,-1.508413239E0,6.397434708E0,-1.505053759E0,1.473618507E0,-2.418980747E-2
6.403658708E0,-7.436984711E0,-1.638208328E1,7.192543030E-1,6.407395708E0,-1.219695687E0,2.157613754E0,3.978897035E-1
6.413619708E0,-6.739734650E0,-1.635933060E1,1.374591522E0,6.417356708E0,-1.088306308E0,2.335186720E0,4.263831377E-1
6.423580708E0,-4.360881500E0,-1.417492310E1,-7.003935242E-1,6.427317708E0,-1.192901969E0,1.778751135E0,1.407848001E-1
6.433540708E0,-2.936593323E0,-1.193123886E1,-2.301613770E0,6.437277708E0,-1.351170659E0,9.593733549E-1,1.174905151E-2
6.443501708E0,-2.834655304E0,-1.112262039E1,-1.863474884E0,6.447238708E0,-1.459212303E0,1.933898628E-1,5.630524829E-2
6.453463042E0,-1.413959656E0,-1.062236069E1,-1.531165924E0,6.457200042E0,-1.549638391E0,-3.118416071E-1,8.076877892E-2
6.463423042E0,6.002517700E-1,-1.009156448E1,-1.832788696E0,6.467160041E0,-1.692555547E0,-2.248228788E-1,-1.301432494E-2
6.473384042E0,2.277513885E0,-9.739047546E0,-2.396067352E0,6.477121042E0,-1.826571107E0,2.260638773E-1,-2.611415684E-1
6.483345042E0,3.694617004E0,-9.505383453E0,-3.030148773E0,6.487082042E0,-1.808999181E0,7.801254392E-1,-6.104059815E-1
6.493306042E0,4.378544769E0,-9.420959015E0,-3.118914185E0,6.497043042E0,-1.487089872E0,1.040656567E0,-9.360064864E-1
6.503266042E0,4.886288910E0,-9.328451385E0,-2.737657013E0,6.507003041E0,-1.084601879E0,9.042591453E-1,-1.229125500E0
6.513227042E0,5.397176514E0,-9.164841614E0,-2.797382812E0,6.516964042E0,-8.252501488E-1,5.465838313E-1,-1.512854457E0
6.523188042E0,5.654192047E0,-8.907826080E0,-3.214864655E0,6.526925042E0,-7.132687569E-1,1.978267916E-2,-1.644984245E0
6.533148041E0,4.807402954E0,-8.819060669E0,-3.464246063E0,6.536885042E0,-6.945666671E-1,-6.009240150E-1,-1.572124958E0
6.543109042E0,3.910617828E0,-8.736282806E0,-3.466341705E0,6.546846041E0,-6.771547198E-1,-1.162409067E0,-1.326745629E0
6.553070042E0,3.100951538E0,-8.221353607E0,-2.800376587E0,6.556807042E0,-6.145216823E-1,-1.389941216E0,-1.108722568E0
6.563031042E0,2.113754425E0,-7.329657898E0,-2.144590302E0,6.566768042E0,-4.828912616E-1,-1.601519704E0,-9.911525249E-1
6.572991041E0,1.104852448E0,-6.483317871E0,-1.977986755E0,6.576728042E0,-2.911995947E-1,-1.793058515E0,-9.101775289E-1
6.582952042E0,1.472937012E-1,-5.891448669E0,-1.770218811E0,6.586689041E0,-7.947616279E-2,-1.885221362E0,-7.482985854E-1
6.592913042E0,-6.044430542E-1,-5.539680176E0,-1.700463867E0,6.596650042E0,1.165119857E-1,-1.866979599E0,-5.616016984E-1
6.602874042E0,-7.595205688E-1,-5.096152496E0,-1.747466125E0,6.606611042E0,3.251841664E-1,-1.629068613E0,-3.648805916E-1
6.612834041E0,-7.696994019E-1,-4.723427582E0,-1.352287903E0,6.616571042E0,5.107814670E-1,-1.320920825E0,-1.799837053E-1
6.622795042E0,-6.806346130E-1,-4.510869598E0,-1.235381012E0,6.626532041E0,6.153593659E-1,-1.010040879E0,2.552228048E-2
6.632756041E0,-4.619393921E-1,-4.403542786E0,-1.370549927E0,6.636493042E0,6.373954415E-1,-6.918259263E-1,2.204006910E-1
6.642716042E0,1.417552185E-1,-4.349355469E0,-1.559457092E0,6.646453042E0,6.462287903E-1,-4.459377825E-1,3.676539660E-1
6.652677041E0,6.536906433E-1,-4.501139832E0,-1.856289825E0,6.656414042E0,6.823875904E-1,-2.929376066E-1,4.839528799E-1
6.662638042E0,7.183561707E-1,-4.793182526E0,-2.259401550E0,6.666375041E0,7.575592995E-1,-2.505294383E-1,5.887486935E-1
6.672599041E0,5.933660889E-1,-5.042264557E0,-2.674937439E0,6.676336042E0,8.420177102E-1,-2.547761202E-1,6.617485881E-1
6.682559042E0,5.965095520E-1,-5.260211334E0,-3.121009827E0,6.686296042E0,8.441560268E-1,-2.322184741E-1,6.944418550E-1
6.692520041E0,8.375083923E-1,-5.642815704E0,-3.831282806E0,6.696257042E0,7.136999965E-1,-2.703903615E-1,6.772229671E-1
6.702481042E0,1.442400513E0,-6.596931610E0,-4.782554626E0,6.706218041E0,4.858621955E-1,-3.832586110E-1,5.911055207E-1
6.712441042E0,2.519710236E0,-8.219407654E0,-5.505551147E0,6.716178041E0,2.259395123E-1,-5.033602118E-1,4.039814174E-1
6.722402042E0,3.723357239E0,-1.009755203E1,-6.182144165E0,6.726139042E0,2.564141061E-3,-5.492246151E-1,1.217429489E-1
6.732363041E0,4.635111237E0,-1.205113953E1,-6.625971222E0,6.736100042E0,-1.018770412E-1,-4.572148323E-1,-2.171107531E-1
6.742324042E0,5.056335297E0,-1.360924942E1,-6.833888855E0,6.746061041E0,-1.363376677E-1,-2.942263186E-1,-5.742872953E-1
6.752284042E0,5.041216736E0,-1.368394409E1,-7.070696411E0,6.756021041E0,-1.533161104E-1,-1.711488664E-1,-8.135036230E-1
6.762245042E0,3.810326385E0,-1.274135422E1,-7.098538513E0,6.765982042E0,-2.095699459E-1,-2.184621543E-1,-8.202610612E-1
6.772206041E0,2.770887909E0,-1.115240845E1,-7.167994080E0,6.775943042E0,-3.238984048E-1,-3.464821875E-1,-6.915137172E-1
6.782167042E0,2.695744171E0,-9.055568848E0,-7.181615753E0,6.785904041E0,-4.281965792E-1,-5.074095130E-1,-4.547218680E-1
6.792127042E0,2.646047516E0,-6.855444031E0,-6.705006866E0,6.795864041E0,-4.529170990E-1,-6.611442566E-1,-1.250081360E-1
6.802088042E0,2.283950500E0,-4.891228638E0,-5.518873444E0,6.805825042E0,-3.412157595E-1,-7.109598517E-1,1.850388944E-1
6.812049042E0,1.747017059E0,-3.527414703E0,-4.502786407E0,6.815786042E0,1.866945811E-2,-6.738673449E-1,3.714987934E-1
6.822009041E0,1.699116669E0,-3.491190033E0,-3.436254272E0,6.825746042E0,4.646887481E-1,-6.201809049E-1,4.387364089E-1
6.831970042E0,1.886077881E0,-5.097948761E0,-2.697690125E0,6.835707041E0,8.587719202E-1,-5.070623755E-1,4.744387567E-1
6.841931042E0,2.099683685E0,-8.259374542E0,-2.392923889E0,6.845668042E0,1.107200265E0,-4.471851587E-1,5.024136901E-1
6.851892042E0,2.001787262E0,-1.201701050E1,-2.657423859E0,6.855629042E0,1.255256057E0,-3.972743154E-1,5.109925270E-1
6.861852041E0,9.572593689E-1,-1.627685211E1,-1.923200684E0,6.865589042E0,1.728339434E0,-5.761942863E-1,5.890425444E-1
6.871813042E0,-3.617976379E-1,-2.282977524E1,1.241967316E0,6.875550041E0,2.467674494E0,-4.343248010E-1,7.650745511E-1
6.881774042E0,-1.165476379E0,-2.870341095E1,4.068689117E0,6.885511042E0,2.362624645E0,1.433578134E-1,6.978909373E-1
6.891734042E0,-1.317560120E0,-2.911565369E1,-1.602268066E0,6.895471042E0,1.203316092E0,6.562061906E-1,1.458280534E-1
6.901695041E0,-8.339158630E-1,-2.355591522E1,-7.288643188E0,6.905432042E0,1.078436077E-1,9.043287635E-1,-7.866714001E-1
6.911656042E0,-1.423988800E0,-1.320314392E1,-3.950285339E0,6.915393041E0,-4.820316732E-1,6.297240853E-1,-1.272464395E0
6.921617042E0,-3.606150970E0,-7.156617737E0,-1.500180359E0,6.925354042E0,-9.132741690E-1,-1.127651110E-1,-1.028189421E0
6.931577042E0,-4.077969818E0,-4.289779358E0,-2.168839874E0,6.935314042E0,-1.277448893E0,-7.466637492E-1,-4.961891770E-1
6.941538041E0,-3.449875946E0,-2.591261444E0,-1.021775208E0,6.945275042E0,-1.423725963E0,-1.143034458E0,1.492926180E-1
6.951499042E0,-2.825823669E0,-2.060465240E0,5.635780334E-1,6.955236041E0,-1.240708709E0,-1.412914991E0,7.753568292E-1
6.961459042E0,-1.790277100E0,-1.989961853E0,1.252146149E0,6.965196041E0,-8.496302962E-1,-1.689678788E0,1.335115790E0
6.971420042E0,-1.060544586E0,-2.615061951E0,1.336869965E0,6.975157042E0,-4.236585200E-1,-1.904743671E0,1.833249688E0
6.981381041E0,-1.081351318E0,-3.601360931E0,1.706601105E0,6.985118042E0,6.051154807E-2,-1.791303754E0,2.217441082E0
6.991342042E0,-9.452842712E-1,-5.182073822E0,3.450474701E0,6.995079041E0,6.383581161E-1,-1.485277534E0,2.347922087E0
7.001302042E0,-2.409988403E-2,-7.031627655E0,4.427193604E0,7.005039041E0,1.253332496E0,-1.286548615E0,2.111442327E0
7.011263042E0,1.752854919E0,-9.621242523E0,4.488416290E0,7.015000042E0,1.877318144E0,-1.090935707E0,1.475312591E0
7.021224041E0,3.613485718E0,-1.342438385E1,4.074227600E0,7.024961042E0,2.377201796E0,-4.495003223E-1,4.044457972E-1
7.031185042E0,5.013524323E0,-1.701167404E1,3.196452942E0,7.034922041E0,2.604016781E0,7.586477399E-1,-6.276361942E-1
7.041145042E0,3.246448975E0,-1.695374451E1,1.669927368E0,7.044882041E0,2.408592939E0,1.794230103E0,-8.167554736E-1
7.051106042E0,-1.752854919E0,-1.526271103E1,4.507127380E-1,7.054843042E0,1.916972756E0,2.901493549E0,-3.095508814E-1
7.061067041E0,-5.121599579E0,-1.364203125E1,2.383044434E-1,7.064804042E0,1.353028178E0,3.348399639E0,2.796367705E-1
7.071027041E0,-4.894222412E0,-1.113369736E1,-3.868704987E0,7.074764042E0,8.135269284E-1,2.195332050E0,5.412148833E-1
7.080988042E0,-3.173999634E0,-8.426876221E0,-9.015751648E0,7.084725041E0,3.695183396E-1,5.771165490E-1,5.114060640E-1
7.090949042E0,-1.286125488E0,-6.446793823E0,-9.354796600E0,7.094686042E0,8.820732683E-2,-2.243370563E-1,3.540329635E-1
7.100910041E0,4.143383789E-1,-5.498066711E0,-5.902525635E0,7.104647042E0,-4.277491942E-2,-6.668234617E-2,2.076668292E-1
7.110870041E0,1.546733551E0,-5.580844574E0,-2.381846924E0,7.114607042E0,-1.434719563E-1,3.376424909E-1,5.368205532E-2
7.120831042E0,2.110161896E0,-5.557642822E0,-1.048120422E0,7.124568041E0,-2.500984073E-1,6.790302992E-1,-1.151273027E-2
7.130792042E0,1.303639069E0,-5.824388123E0,-5.078938293E-1,7.134529042E0,-2.690233290E-1,9.160361886E-1,-4.708087537E-3
7.140752042E0,4.954696655E-1,-6.434219971E0,3.923341370E-1,7.144489042E0,-1.602855772E-1,1.168244720E0,-5.379002541E-3
7.150713041E0,-3.544628906E-1,-7.471413116E0,1.628313904E0,7.154450042E0,8.121945709E-2,1.405011177E0,8.638020605E-2
7.160674042E0,-1.884730682E0,-9.024583282E0,2.699336700E0,7.164411041E0,4.207802117E-1,1.456912994E0,3.067847788E-1
7.170635042E0,-2.850522308E0,-1.022194336E1,3.514691162E0,7.174372042E0,7.818233371E-1,1.387996197E0,5.432447195E-1
7.180595042E0,-2.522554321E0,-1.063298859E1,3.985611877E0,7.184332042E0,1.114237189E0,1.214454293E0,7.283871174E-1
7.190556041E0,-1.726060638E0,-1.019155655E1,3.651207275E0,7.194293042E0,1.440738320E0,1.040787458E0,8.534433246E-1
7.200517042E0,-9.809101868E-1,-9.301956482E0,2.219734039E0,7.204254041E0,1.736298203E0,6.460610628E-1,9.280763865E-1
7.210477042E0,3.487747192E-2,-8.541088715E0,-1.069974976E0,7.214214041E0,1.909829736E0,8.819831163E-2,1.005083323E0
7.220438042E0,9.095086670E-1,-8.101752319E0,-4.600982208E0,7.224175042E0,1.819731355E0,-9.363520145E-2,1.060417771E0
7.230399041E0,2.000889130E0,-8.267457733E0,-7.167095947E0,7.234136042E0,1.313444257E0,2.598767877E-1,1.073573351E0
7.240360042E0,3.301983490E0,-9.094338226E0,-8.267308044E0,7.244097041E0,5.445178151E-1,6.810388565E-1,1.025732040E0
7.250320042E0,4.303101654E0,-9.340426483E0,-7.225773926E0,7.254057041E0,-5.995500460E-2,7.299373746E-1,8.474504352E-1
7.260281042E0,4.543651428E0,-8.640332336E0,-4.606371002E0,7.264018042E0,-2.624818683E-1,5.388411283E-1,5.794919729E-1
7.270242041E0,3.975582733E0,-8.371790771E0,-2.060315552E0,7.273979042E0,-2.365767807E-1,3.646715283E-1,3.123122156E-1
7.280203042E0,3.103945312E0,-8.620124359E0,-9.328601074E-1,7.283940041E0,-1.839375496E-1,2.941825986E-1,1.459726393E-1
7.290163042E0,2.117796021E0,-9.223669281E0,-4.273612976E-1,7.293900041E0,-6.061960384E-2,3.069939911E-1,6.408256292E-2
7.300124042E0,1.516646118E0,-1.002734802E1,4.971162415E-1,7.303861042E0,1.698601395E-1,2.604846954E-1,4.380368441E-2
7.310085041E0,1.174757080E0,-1.095975906E1,6.640191650E-1,7.313822042E0,4.247957766E-1,1.360431761E-1,5.536419898E-2
7.320045041E0,1.133592682E0,-1.144939087E1,-4.189787292E-1,7.323782042E0,5.825687647E-1,8.721926808E-2,1.612207294E-2
7.330006042E0,1.674567719E0,-1.105945175E1,-1.812730408E0,7.333743041E0,5.638092160E-1,2.002190500E-1,-8.989197761E-2
7.339967042E0,2.203567657E0,-1.077399536E1,-3.219055939E0,7.343704042E0,3.475652635E-1,3.352329731E-1,-1.932717711E-1
7.349928041E0,2.118993530E0,-1.108474915E1,-4.082909546E0,7.353665042E0,1.032514200E-1,3.556429148E-1,-2.517585158E-1
7.359888041E0,1.683698730E0,-1.158500885E1,-3.780238953E0,7.363625042E0,2.245302871E-2,2.678250372E-1,-2.859466970E-1
7.369849042E0,1.493893433E0,-1.190534271E1,-3.158432007E0,7.373586041E0,3.796913475E-2,1.619558483E-1,-3.887652457E-1
7.379810042E0,1.717378693E0,-1.201102295E1,-2.954555969E0,7.383547042E0,-2.306294255E-2,-2.109777927E-2,-5.540465713E-1
7.389770042E0,2.185904388E0,-1.231474136E1,-2.971321106E0,7.393507042E0,-2.092615664E-1,-2.269063294E-1,-7.564300299E-1
7.399731041E0,2.441872101E0,-1.257684631E1,-2.537972260E0,7.403468042E0,-4.938059449E-1,-3.409585059E-1,-9.623071551E-1
7.409692042E0,2.385589142E0,-1.223211319E1,-1.612446899E0,7.413429041E0,-8.227481246E-1,-3.503227234E-1,-1.147781610E0
7.419653042E0,2.301164703E0,-1.172466843E1,-6.113287354E-1,7.423390042E0,-1.077672124E0,-4.429866970E-1,-1.309816480E0
7.429613042E0,2.387834473E0,-1.138307877E1,-2.778222656E-1,7.433350042E0,-1.214727998E0,-7.049235106E-1,-1.448185325E0
7.439574041E0,2.343227234E0,-1.104657852E1,-2.514770508E-2,7.443311042E0,-1.227537990E0,-8.901029825E-1,-1.563121080E0
7.449535042E0,1.676363983E0,-1.089449478E1,5.351371765E-1,7.453272041E0,-1.196499705E0,-7.891787887E-1,-1.594998121E0
7.459494667E0,-1.526824951E-2,-1.084883972E1,6.279441833E-1,7.463231666E0,-1.208901882E0,-3.893269300E-1,-1.514185190E0
7.469455666E0,-2.095342712E0,-1.089389603E1,1.197509766E-3,7.473192667E0,-1.306169510E0,2.036343962E-1,-1.350641847E0
7.479416667E0,-4.277205505E0,-1.144295425E1,-8.574169922E-1,7.483153666E0,-1.420790553E0,7.678951621E-1,-1.073669672E0
7.489377667E0,-6.416257324E0,-1.256142838E1,-1.090033264E0,7.493114667E0,-1.410225034E0,1.288951159E0,-7.081287503E-1
7.499337667E0,-7.627688141E0,-1.374232269E1,3.787124634E-1,7.503074666E0,-1.261776924E0,1.800700784E0,-3.592920303E-1
7.509298666E0,-7.511978760E0,-1.440065369E1,1.556463318E0,7.513035667E0,-1.121341228E0,2.013539076E0,-1.575301290E-1
7.519259667E0,-6.218069458E0,-1.427281952E1,7.444020081E-1,7.522996666E0,-1.101675391E0,1.619570136E0,-8.955331147E-2
7.529220667E0,-4.293371887E0,-1.336076614E1,-1.060544586E0,7.532957667E0,-1.161914706E0,9.717985392E-1,-1.113129407E-1
7.539180667E0,-2.604733429E0,-1.226369751E1,-1.781894531E0,7.542917666E0,-1.328135967E0,6.565468907E-1,-1.664288193E-1
7.549141666E0,-1.513802032E0,-1.173379944E1,-1.782942352E0,7.552878667E0,-1.575942278E0,7.157170177E-1,-1.927736104E-1
7.559102667E0,-3.995191956E-1,-1.196611633E1,-1.847308502E0,7.562839666E0,-1.803323269E0,9.774817228E-1,-1.971416771E-1
7.569062667E0,9.428892517E-1,-1.211191315E1,-1.748513947E0,7.572799667E0,-1.958466053E0,1.172877908E0,-3.370140791E-1
7.579023667E0,2.704875183E0,-1.170880142E1,-2.256856842E0,7.582760666E0,-2.133537292E0,1.398031592E0,-5.587430000E-1
7.588984666E0,3.657045135E0,-1.148112488E1,-3.086282043E0,7.592721667E0,-2.058601618E0,1.282325745E0,-9.573255181E-1
7.598945667E0,5.372926941E0,-1.111154343E1,-3.086132355E0,7.602682666E0,-1.579006553E0,5.888605714E-1,-1.330787539E0
7.608905667E0,5.651946716E0,-1.040710831E1,-3.342100067E0,7.612642667E0,-1.062988997E0,-2.617677152E-1,-1.516606092E0
7.618866667E0,5.426066437E0,-9.434131622E0,-3.355572052E0,7.622603667E0,-7.610731721E-1,-8.740913272E-1,-1.648242354E0
7.628827666E0,5.623805237E0,-8.525371399E0,-3.427422638E0,7.632564667E0,-6.515314579E-1,-1.221878171E0,-1.668777466E0
7.638787667E0,4.838238831E0,-7.875273285E0,-3.254981232E0,7.642524667E0,-6.493386626E-1,-1.584299326E0,-1.587653518E0
7.648748667E0,4.136049042E0,-7.236701202E0,-2.996618500E0,7.652485667E0,-6.372601986E-1,-1.850299358E0,-1.446918249E0
7.658709667E0,3.109184418E0,-6.569538574E0,-1.989363098E0,7.662446667E0,-5.665585995E-1,-1.929984093E0,-1.318344116E0
7.668670666E0,1.779649200E0,-5.986501007E0,-1.157692566E0,7.672407667E0,-4.644431472E-1,-2.030451298E0,-1.163809419E0
7.678630667E0,6.424639893E-1,-5.422324219E0,-1.065035248E0,7.682367667E0,-3.784908950E-1,-2.114194870E0,-1.026771665E0
7.688591667E0,-2.463876343E-1,-5.044509888E0,-1.036444702E0,7.692328667E0,-3.121917546E-1,-2.075261354E0,-8.829868436E-1
7.698552667E0,-7.348219299E-1,-4.795128479E0,-9.897418213E-1,7.702289667E0,-2.147713453E-1,-1.931177020E0,-7.637504339E-1
7.708512667E0,-9.328601074E-1,-4.600084076E0,-9.566606140E-1,7.712249666E0,-6.228193641E-2,-1.753034234E0,-6.642760634E-1
7.718473667E0,-8.560697937E-1,-4.557572479E0,-9.792636108E-1,7.722210667E0,1.436241716E-1,-1.508806348E0,-5.446699262E-1
7.728434667E0,-7.586224365E-1,-4.779411163E0,-9.496252441E-1,7.732171667E0,3.388570547E-1,-1.219524264E0,-3.798441887E-1
7.738395667E0,-5.035528564E-1,-4.894821167E0,-9.737251282E-1,7.742132667E0,5.088653564E-1,-8.768597841E-1,-1.738820225E-1
7.748355667E0,-2.603086853E-1,-4.943020935E0,-8.204438782E-1,7.752092666E0,6.576468945E-1,-5.124689937E-1,2.600977197E-2
7.758316667E0,8.457412720E-2,-5.055736542E0,-7.026388550E-1,7.762053667E0,7.934574485E-1,-2.263032943E-1,2.021409571E-1
7.768277667E0,2.194436646E-1,-5.251080322E0,-7.577243042E-1,7.772014667E0,9.182395935E-1,1.524941064E-2,3.642787337E-1
7.778238667E0,1.073268127E-1,-5.384303284E0,-9.204359436E-1,7.781975667E0,1.026945233E0,1.419406235E-1,4.891295135E-1
7.788198667E0,-1.136137390E-1,-5.575006714E0,-1.433568878E0,7.791935666E0,1.084162712E0,1.572838873E-1,5.651355982E-1
7.798159667E0,-1.688488770E-1,-5.960155792E0,-2.407892761E0,7.801896667E0,1.010273099E0,5.611078814E-2,5.609716773E-1
7.808120667E0,2.755769348E-1,-6.769522705E0,-3.836222534E0,7.811857667E0,8.030450940E-1,-1.581772715E-1,4.686135650E-1
7.818080666E0,1.059347076E0,-8.011340332E0,-5.141208801E0,7.821817667E0,4.837489426E-1,-4.224251509E-1,3.405396938E-1
7.828041667E0,2.200723572E0,-9.571545868E0,-6.367159424E0,7.831778666E0,1.604731679E-1,-7.421773076E-1,1.432071775E-1
7.838002666E0,3.792663116E0,-1.114103210E1,-7.265591125E0,7.841739667E0,-7.238357514E-2,-8.846647739E-1,-1.299658567E-1
7.847963667E0,5.018014984E0,-1.255663834E1,-7.557484131E0,7.851700666E0,-1.553761959E-1,-7.027471662E-1,-4.416662157E-1
7.857923666E0,5.744454346E0,-1.323098602E1,-7.403005371E0,7.861660667E0,-1.224341989E-1,-3.816214800E-1,-7.418178320E-1
7.867884667E0,5.419480133E0,-1.292801605E1,-7.379055176E0,7.871621666E0,-8.627673239E-2,-1.844266504E-1,-8.249952793E-1
7.877845666E0,3.865112457E0,-1.201701050E1,-7.483687592E0,7.881582667E0,-1.033373252E-1,-1.526659578E-1,-7.220599055E-1
7.887805667E0,3.003354492E0,-1.047910858E1,-7.221582642E0,7.891542667E0,-1.486560702E-1,-1.514709890E-1,-5.589237213E-1
7.897766666E0,2.563119965E0,-8.918004913E0,-6.603368225E0,7.901503667E0,-1.650382280E-1,-1.499371827E-1,-3.333124220E-1
7.907727667E0,2.132465515E0,-7.270830231E0,-5.600453796E0,7.911464666E0,-9.312887490E-2,-1.225713342E-1,-5.694450065E-2
7.917688666E0,1.693877563E0,-5.593867493E0,-4.759203186E0,7.921425667E0,1.199873090E-1,-8.122652769E-2,1.662569493E-1
7.927648667E0,1.520088959E0,-4.969665527E0,-4.103865967E0,7.931385667E0,4.243213832E-1,-4.691409692E-2,3.195074797E-1
7.937609666E0,1.594035187E0,-6.210285645E0,-3.134032745E0,7.941346667E0,6.995282769E-1,-7.470316719E-3,4.393840432E-1
7.947570667E0,2.003583527E0,-8.645122375E0,-2.451452179E0,7.951307666E0,8.978498578E-1,-5.258295219E-3,5.004979968E-1
7.957530667E0,2.439477081E0,-1.132200577E1,-2.419568481E0,7.961267666E0,1.018592834E0,3.056581505E-2,5.432298183E-1
7.967491667E0,1.955383759E0,-1.401281021E1,-2.249222717E0,7.971228667E0,1.104293346E0,3.765727580E-2,5.728535056E-1
7.977452666E0,1.143621826E0,-1.750849091E1,-1.973496094E0,7.981189667E0,1.289768577E0,-1.427109633E-2,6.570676565E-1
7.987413667E0,6.554869080E-1,-2.354588608E1,-1.579066315E0,7.991150666E0,1.366875172E0,5.956238136E-2,8.811537027E-1
7.997373667E0,1.323248291E-1,-2.932611603E1,-3.144810333E0,8.001110666E0,8.125101924E-1,2.780109346E-1,8.900363445E-1
8.007334667E0,-6.152206421E-2,-2.757879959E1,-6.472091217E0,8.011071667E0,1.890067197E-2,4.384762347E-1,1.764756143E-1
8.017295667E0,-3.706292725E-1,-1.609093872E1,-4.399351501E0,8.021032667E0,-4.483521879E-1,7.682103515E-1,-5.243517756E-1
8.027256667E0,-2.735411682E0,-7.226073303E0,-1.047671356E0,8.030993666E0,-7.475240231E-1,5.440549850E-1,-6.905133128E-1
8.037216667E0,-3.819756775E0,-3.346141663E0,-1.628613281E0,8.040953666E0,-9.734890461E-1,1.921534389E-1,-4.132063091E-1
8.047177667E0,-3.724704437E0,-1.403331757E0,-1.376088409E0,8.050914667E0,-9.882613420E-1,-2.229193896E-1,8.339548856E-2
8.057138667E0,-3.045566711E0,-7.707472229E-1,1.748364258E-1,8.060875667E0,-6.688262820E-1,-6.248154640E-1,6.148356199E-1
8.067098666E0,-1.832040253E0,-8.096662903E-1,2.046693878E0,8.070835667E0,-1.545951366E-1,-9.583262801E-1,1.123256803E0
8.077059667E0,-7.619155884E-1,-1.361718292E0,2.880909119E0,8.080796666E0,3.134686947E-1,-1.220302463E0,1.579098105E0
8.087020667E0,-1.634600830E-1,-2.265987854E0,2.686164093E0,8.090757667E0,6.765023470E-1,-1.520748496E0,1.957568407E0
8.096981667E0,3.367996216E-2,-3.779340820E0,2.657423859E0,8.100718667E0,1.049822807E0,-1.713570714E0,2.239008904E0
8.106941666E0,4.156855774E-1,-6.323300629E0,3.572920074E0,8.110678667E0,1.491183996E0,-1.756521940E0,2.317474365E0
8.116902667E0,1.543889465E0,-9.050030365E0,4.443060608E0,8.120639666E0,1.890370131E0,-1.508361101E0,2.134878397E0
8.126863667E0,3.006647644E0,-1.248134491E1,4.412823486E0,8.130600667E0,2.097683907E0,-7.492954731E-1,1.620035172E0
8.136823667E0,5.135969696E0,-1.778840881E1,3.435505829E0,8.140560667E0,2.157398462E0,4.169853926E-1,6.523317099E-1
8.146784666E0,6.072422333E0,-1.980711090E1,1.529968414E0,8.150521667E0,2.089292288E0,1.342348933E0,-1.543341875E-1
8.156745667E0,2.085762634E0,-1.643297745E1,-4.944218445E-1,8.160482666E0,1.770076394E0,1.994957685E0,-2.209292352E-1
8.166706667E0,-2.523003387E0,-1.338531509E1,-1.476828918E0,8.170443667E0,1.293907166E0,2.617316246E0,9.848151356E-2
8.176666667E0,-4.495301971E0,-1.158770325E1,-1.669328613E0,8.180403667E0,8.681942821E-1,2.748038769E0,3.475518525E-1
8.186627666E0,-4.193978577E0,-9.553882599E0,-4.459077301E0,8.190364667E0,5.053982735E-1,1.836369395E0,3.824214339E-1
8.196588667E0,-2.781066742E0,-7.865094452E0,-8.296048279E0,8.200325666E0,2.524334192E-1,5.230967402E-1,2.669466138E-1
8.206549667E0,-4.842430115E-1,-6.803202667E0,-8.193062439E0,8.210286667E0,1.302135140E-1,-3.322990239E-2,1.717553884E-1
8.216509667E0,1.154399414E0,-6.895261230E0,-4.955594788E0,8.220246667E0,8.527686447E-2,1.094022095E-1,9.507074952E-2
8.226470666E0,1.913171539E0,-6.889573059E0,-2.740201721E0,8.230207667E0,-2.575804107E-2,3.540346026E-1,-1.491647214E-2
8.236431667E0,2.252665558E0,-6.825955353E0,-2.239343262E0,8.240168666E0,-1.887121201E-1,5.025879145E-1,-6.566231698E-2
8.246392666E0,1.688039703E0,-7.078330536E0,-1.400637360E0,8.250129667E0,-2.604853809E-1,6.318596005E-1,-5.014301091E-2
8.256352667E0,8.891510010E-1,-7.505093079E0,2.493814087E-1,8.260089667E0,-1.778333038E-1,8.130365610E-1,7.059122436E-3
8.266313666E0,-9.131011963E-2,-8.132438507E0,1.898951111E0,8.270050667E0,3.493967280E-2,9.545468092E-1,1.097309068E-1
8.276274667E0,-1.013991394E0,-8.846453705E0,3.093167725E0,8.280011666E0,3.132343590E-1,1.004724622E0,2.459201962E-1
8.286234667E0,-1.259780273E0,-9.331145782E0,3.527564392E0,8.289971666E0,6.032912135E-1,8.866758347E-1,3.941852748E-1
8.296195667E0,-1.087638245E0,-9.474098511E0,3.451073456E0,8.299932667E0,9.316956401E-1,8.275542855E-1,5.635712743E-1
8.306156666E0,-9.819580078E-1,-9.251810760E0,3.360062714E0,8.309893667E0,1.284784675E0,7.762639523E-1,6.964854002E-1
8.316117667E0,-5.421725464E-1,-8.712182922E0,2.023941193E0,8.319854666E0,1.577047348E0,4.913726747E-1,8.219133615E-1
8.326077667E0,-2.005828857E-2,-8.102500763E0,-7.744894409E-1,8.329814666E0,1.691871166E0,2.464436926E-2,9.559944868E-1
8.336038667E0,5.438191223E-1,-7.490872650E0,-3.778891754E0,8.339775667E0,1.526619554E0,-1.907670945E-1,1.074547529E0
8.345999666E0,1.437610474E0,-7.039860535E0,-5.818400574E0,8.349736667E0,1.109785318E0,-6.960236002E-3,1.102464676E0
8.355960667E0,2.846780090E0,-7.165599060E0,-6.586902466E0,8.359697666E0,5.850376487E-1,2.830075920E-1,1.012219191E0
8.365921666E0,4.031266937E0,-7.464377747E0,-6.102958832E0,8.369658667E0,1.843794286E-1,3.613415360E-1,8.113871813E-1
8.375881667E0,4.254901886E0,-7.796087952E0,-4.344565430E0,8.379618667E0,-1.925411052E-3,2.644906938E-1,5.627045035E-1
8.385842666E0,3.716920624E0,-8.084987183E0,-2.542762299E0,8.389579667E0,-5.872451141E-2,1.226467490E-1,3.572005928E-1
8.395803667E0,2.573897552E0,-8.285869446E0,-1.589843903E0,8.399540666E0,-6.640607119E-2,5.123601481E-2,2.273888737E-1
8.405764666E0,1.397793274E0,-8.649014282E0,-1.049916687E0,8.409501667E0,-1.030391827E-2,-4.597895220E-2,1.705157459E-1
8.415724667E0,4.287084961E-1,-9.156159668E0,-7.188052368E-1,8.419461667E0,7.036831230E-2,-1.680652499E-1,1.695904136E-1
8.425685667E0,-5.882766724E-2,-9.907147980E0,-6.506968689E-1,8.429422667E0,1.396584362E-1,-2.721796632E-1,1.910901070E-1
8.435646667E0,2.158511353E-1,-1.080902252E1,-7.246430969E-1,8.439383666E0,2.083688825E-1,-2.571714520E-1,2.142127007E-1
8.445607666E0,1.079555054E0,-1.144011017E1,-8.644523621E-1,8.449344667E0,2.831400931E-1,-1.249391139E-1,1.998545378E-1
8.455568042E0,2.118694153E0,-1.145448029E1,-1.352886658E0,8.459305041E0,3.185520768E-1,5.930321291E-2,1.520606130E-1
8.465529041E0,2.726430359E0,-1.111034592E1,-2.285896454E0,8.469266042E0,2.831203043E-1,1.620011032E-1,8.735272288E-2
8.475490042E0,3.011287994E0,-1.083192490E1,-3.327280884E0,8.479227041E0,2.232754230E-1,1.750053018E-1,2.176433243E-2
8.485451042E0,2.945275269E0,-1.053658905E1,-3.802991638E0,8.489188042E0,1.644826829E-1,1.340538710E-1,-3.058595769E-2
8.495411042E0,2.668201447E0,-1.030052994E1,-3.986060944E0,8.499148041E0,1.096477136E-1,4.310192913E-2,-4.928338900E-2
8.505372041E0,2.201921082E0,-1.011252090E1,-3.973038025E0,8.509109042E0,3.688802198E-2,-4.532886669E-2,-4.611795768E-2
8.515333042E0,1.754651184E0,-1.004800507E1,-3.584595795E0,8.519070041E0,-6.962393224E-2,-8.108252287E-2,-2.914482914E-2
8.525294042E0,1.563348999E0,-1.017359390E1,-2.781665497E0,8.529031042E0,-1.792132705E-1,-7.397960871E-2,-2.817996591E-2
8.535255041E0,1.848056946E0,-1.048853897E1,-1.916913757E0,8.538992042E0,-2.307370305E-1,-5.641685426E-2,-7.344671339E-2
8.545215041E0,2.118095398E0,-1.098326019E1,-1.468745728E0,8.548952042E0,-3.025076389E-1,-4.678872973E-2,-1.329289526E-1
8.555176042E0,2.256258087E0,-1.123683289E1,-1.405876465E0,8.558913041E0,-4.567743540E-1,-8.982570469E-2,-2.768666744E-1
8.565137042E0,2.498903503E0,-1.096559692E1,-1.473086700E0,8.568874042E0,-6.406611204E-1,-1.495537460E-1,-5.242868066E-1
8.575098041E0,2.313439178E0,-1.062251038E1,-1.365460510E0,8.578835042E0,-8.679972291E-1,-2.162070423E-1,-8.050057292E-1
8.585058041E0,1.888023834E0,-1.045994843E1,-9.978250122E-1,8.588795042E0,-1.083721280E0,-4.430947900E-1,-1.102573991E0
8.595019042E0,1.742975464E0,-1.048135391E1,-4.721182251E-1,8.598756041E0,-1.195118904E0,-7.425648570E-1,-1.380201221E0
8.604980042E0,1.213227081E0,-1.033091675E1,3.637435913E-2,8.608717042E0,-1.236087322E0,-1.001154065E0,-1.651023746E0
8.614941041E0,4.887336731E-1,-1.058344162E1,5.927673340E-2,8.618678042E0,-1.310304046E0,-1.066702366E0,-1.869195700E0
8.624902042E0,-6.047424316E-1,-1.177870605E1,-1.199006653E-1,8.628639041E0,-1.411106467E0,-7.909753323E-1,-1.963346601E0
8.634862042E0,-2.562820587E0,-1.387270157E1,3.206332397E-1,8.638599041E0,-1.430379272E0,-1.695828140E-1,-1.756547809E0
8.644823042E0,-5.484894104E0,-1.634645737E1,1.290915527E0,8.648560042E0,-1.317394853E0,5.544068217E-1,-1.246999264E0
8.654784041E0,-7.767048340E0,-1.817445602E1,1.774410095E0,8.658521042E0,-1.130752921E0,1.051486492E0,-6.695826650E-1
8.664745042E0,-7.104825439E0,-1.821786575E1,1.199156342E0,8.668482041E0,-1.039554596E0,8.036274314E-1,-3.877145052E-1
8.674706042E0,-3.884871368E0,-1.613240250E1,-7.852670288E-1,8.678443042E0,-1.111296058E0,1.337574869E-1,-3.653052449E-1
8.684666042E0,-1.847907257E0,-1.371148682E1,-1.985920258E0,8.688403042E0,-1.206958413E0,-4.240168333E-1,-4.251233041E-1
8.694627041E0,-9.006770325E-1,-1.272713379E1,-1.952839050E0,8.698364042E0,-1.354114175E0,-5.264996886E-1,-4.920076132E-1
8.704588042E0,8.547225952E-2,-1.245784378E1,-2.439177704E0,8.708325041E0,-1.528968215E0,-4.759635627E-1,-5.982480049E-1
8.714549042E0,1.184337158E0,-1.181508041E1,-3.330873413E0,8.718286042E0,-1.712594986E0,-1.163499579E-1,-7.112499475E-1
8.724510042E0,1.910776520E0,-1.120779327E1,-3.320245514E0,8.728247042E0,-1.766375422E0,4.464486837E-1,-8.658997416E-1
8.734470041E0,2.751128998E0,-1.056143738E1,-2.637814636E0,8.738207042E0,-1.668754935E0,9.622405767E-1,-1.054748297E0
8.744431042E0,3.376229095E0,-1.024544449E1,-2.127226410E0,8.748168041E0,-1.330401897E0,9.897851348E-1,-1.417209864E0
8.754392042E0,4.768034821E0,-1.009291168E1,-1.135388947E0,8.758129042E0,-8.647373319E-1,2.947327197E-1,-1.775620818E0
8.764353042E0,4.812192993E0,-1.057805283E1,-1.351539459E0,8.768090042E0,-6.732342243E-1,-6.015061736E-1,-1.994530320E0
8.774314042E0,4.389771423E0,-1.073612411E1,-2.969524841E0,8.778051042E0,-7.613610625E-1,-1.517188191E0,-2.059860945E0
8.784274042E0,3.704646149E0,-1.025891647E1,-3.390599213E0,8.788011041E0,-8.332073092E-1,-1.888262153E0,-1.899435282E0
8.794235041E0,2.418520660E0,-9.129066010E0,-1.892813873E0,8.797972042E0,-7.434227467E-1,-2.113802910E0,-1.657501936E0
8.804196042E0,1.541943512E0,-7.803273010E0,-1.589095459E0,8.807933041E0,-6.121068001E-1,-2.284534216E0,-1.450103521E0
8.814157042E0,9.816586304E-1,-6.620432739E0,-1.376088409E0,8.817894042E0,-4.309528470E-1,-2.475546122E0,-1.368843079E0
8.824118041E0,5.912704468E-1,-5.765410767E0,-1.026116180E0,8.827855042E0,-3.057653606E-1,-2.557158709E0,-1.267166972E0
8.834079042E0,-4.083508301E-1,-5.458548889E0,-1.085093536E0,8.837816041E0,-2.375714183E-1,-2.584435463E0,-1.150607586E0
8.844039042E0,-6.867718506E-1,-4.813689880E0,-1.036295013E0,8.847776041E0,-1.803289056E-1,-2.445116758E0,-1.057995558E0
8.854000042E0,-7.923023987E-1,-4.235592041E0,-8.758287048E-1,8.857737042E0,-1.426851898E-1,-2.304342747E0,-9.802968502E-1
8.863961041E0,-5.751040649E-1,-3.802692261E0,-9.322613525E-1,8.867698042E0,-9.528812766E-2,-2.132892132E0,-9.071001410E-1
8.873922042E0,-2.356100464E-1,-3.675456848E0,-7.882608032E-1,8.877659041E0,-4.893065896E-3,-1.967504501E0,-7.872444391E-1
8.883883042E0,-1.571731567E-1,-3.892804871E0,-6.605763245E-1,8.887620042E0,1.180522963E-1,-1.798627615E0,-6.085279584E-1
8.893843042E0,-6.286926270E-2,-4.044589233E0,-5.195695496E-1,8.897580042E0,2.754905820E-1,-1.555437684E0,-3.898166418E-1
8.903804041E0,2.739303589E-2,-4.311334534E0,-1.580712891E-1,8.907541042E0,4.726521075E-1,-1.208805442E0,-1.569253504E-1
8.913765042E0,5.343887329E-2,-4.612358551E0,2.284249878E-1,8.917502041E0,6.839350462E-1,-7.610027790E-1,7.675400376E-2
8.923726042E0,3.652404785E-2,-4.808450775E0,3.116519165E-1,8.927463042E0,9.079145789E-1,-2.561305761E-1,3.259665072E-1
8.933687042E0,-5.613327026E-2,-5.022056580E0,1.881587219E-1,8.937424042E0,1.127505779E0,2.153225690E-1,5.718408823E-1
8.943648042E0,-2.377056885E-1,-5.367687836E0,-5.845344543E-1,8.947385042E0,1.265134215E0,5.001447201E-1,7.592994571E-1
8.953608042E0,-2.299218750E-1,-5.901777191E0,-2.271975403E0,8.957345041E0,1.244443417E0,4.916864336E-1,8.459842801E-1
8.963569042E0,4.565505981E-2,-6.759343872E0,-4.126319275E0,8.967306042E0,1.031664491E0,2.756201923E-1,7.985699177E-1
8.973530042E0,5.638774109E-1,-7.755671997E0,-5.971232758E0,8.977267042E0,6.431139708E-1,-1.949385703E-1,5.796631575E-1
8.983491042E0,1.979783020E0,-9.333540802E0,-8.211474152E0,8.987228042E0,1.101400852E-1,-8.153970242E-1,2.691980004E-1
8.993452041E0,3.307971039E0,-1.205039108E1,-1.055979080E1,8.997189042E0,-2.956252396E-1,-1.261068821E0,-1.067366302E-1
9.003413042E0,5.246290283E0,-1.506332565E1,-1.054691757E1,9.007150041E0,-3.660357296E-1,-1.199020982E0,-6.368497610E-1
9.013374042E0,7.090305634E0,-1.584335358E1,-9.054071960E0,9.017111042E0,-3.548515141E-1,-8.917948008E-1,-1.090818048E0
9.023334042E0,5.945336609E0,-1.319955139E1,-8.613388367E0,9.027071042E0,-4.539900720E-1,-7.253640294E-1,-1.068658352E0
9.033295041E0,3.549418945E0,-9.394164734E0,-8.783285065E0,9.037032042E0,-6.292822957E-1,-6.357584000E-1,-8.189361691E-1
9.043256042E0,3.023412781E0,-6.699318695E0,-8.120613098E0,9.046993041E0,-6.811031699E-1,-4.162803292E-1,-4.808383286E-1
9.053217042E0,2.649340668E0,-5.170098724E0,-6.146667938E0,9.056954042E0,-5.350733399E-1,-8.279073983E-2,-2.153966725E-1
9.063178041E0,2.165995789E0,-4.838987274E0,-3.854185181E0,9.066915042E0,-2.175774127E-1,2.518530488E-1,7.082043588E-2
9.073139042E0,1.255738678E0,-7.490423584E0,-1.791324921E0,9.076876041E0,1.334718168E-1,5.018168092E-1,3.131013513E-1
9.083099042E0,1.230890350E0,-1.295989975E1,-1.156794434E0,9.086836041E0,5.384877324E-1,7.011517286E-1,2.463510633E-1
9.093060042E0,2.696492615E0,-2.051947952E1,1.393601990E-1,9.096797042E0,1.251348615E0,6.589876413E-1,5.216445029E-2
9.103021041E0,2.961142273E0,-3.019640625E1,2.226919098E0,9.106758042E0,1.781020999E0,5.184688568E-1,2.779389918E-1
9.112982042E0,-2.903961182E-1,-3.633693695E1,-3.106040955E-1,9.116719041E0,8.826498985E-1,4.008421600E-1,1.583080143E-1
9.122943041E0,-8.422984314E-1,-2.699366638E1,-7.926915894E0,9.126680042E0,-3.468527198E-1,5.232695341E-1,-5.788379312E-1
9.132904042E0,-1.163231049E0,-1.243883331E1,-4.745731201E0,9.136641041E0,-8.782852888E-1,5.910642743E-1,-8.922923803E-1
9.142865042E0,-3.395089874E0,-5.356910248E0,-3.647914124E-1,9.146602042E0,-1.057173371E0,5.981868505E-1,-7.516686916E-1
9.152825042E0,-3.240611115E0,-1.355880432E0,-1.435814209E0,9.156562041E0,-1.020493627E0,6.031483412E-1,-5.044122934E-1
9.162786041E0,-2.289039917E0,6.030958557E-1,-9.621990967E-1,9.166523042E0,-6.578738093E-1,3.797938228E-1,-2.039214224E-1
9.172747042E0,-2.010618896E0,1.101858673E0,6.985972595E-1,9.176484041E0,-1.391382813E-1,-2.803263813E-2,3.004712164E-1
9.182708042E0,-2.725083160E0,2.573149109E-1,1.268462219E0,9.186445042E0,3.737117052E-1,-4.190291464E-1,9.646643996E-1
9.192669041E0,-2.942730560E0,-1.772314453E0,1.203048248E0,9.196406042E0,7.855957150E-1,-9.763563275E-1,1.701426864E0
9.202630042E0,-2.449057159E0,-4.808600464E0,1.055904236E0,9.206367041E0,1.138888478E0,-1.654269457E0,2.320526600E0
9.212591042E0,-9.966275024E-1,-7.468419342E0,1.705553284E0,9.216328042E0,1.592821717E0,-2.130147219E0,2.608302355E0
9.222551042E0,9.623487854E-1,-1.004366409E1,3.808380432E0,9.226288042E0,2.151554346E0,-2.044477463E0,2.575916529E0
9.232512041E0,3.168311462E0,-1.260004807E1,5.570665741E0,9.236249042E0,2.565388918E0,-1.192647099E0,2.087355852E0
9.242473042E0,5.671555939E0,-1.451890778E1,5.589975586E0,9.246210041E0,2.674751759E0,1.281905919E-1,1.430920482E0
9.252434042E0,5.273683319E0,-1.627760056E1,4.468657379E0,9.256171042E0,2.488702059E0,1.287242532E0,9.883523583E-1
9.262395042E0,3.037633209E0,-1.678639252E1,1.408870239E0,9.266132042E0,2.065181494E0,2.123806953E0,8.359995484E-1
9.272356042E0,2.951861572E-1,-1.503638168E1,-1.917811890E0,9.276093042E0,1.514830709E0,2.439812183E0,7.481815219E-1
9.282317041E0,-1.004561005E0,-1.271635620E1,-4.047133942E0,9.286054042E0,9.809311032E-1,2.412653446E0,6.870792508E-1
9.292278042E0,-2.536026306E0,-1.129012207E1,-4.727469177E0,9.296015041E0,5.985519886E-1,2.094532490E0,7.184431553E-1
9.302238042E0,-3.819008331E0,-1.073747131E1,-4.746030579E0,9.305975042E0,3.489298522E-1,1.397329688E0,7.231189013E-1
9.312199042E0,-3.508703613E0,-1.002405487E1,-5.864205322E0,9.315936042E0,2.223755717E-1,3.125227094E-1,6.082060933E-1
9.322160041E0,-1.215322723E0,-8.823102264E0,-6.579418030E0,9.325897042E0,2.254560292E-1,-4.311306775E-1,4.631607234E-1
9.332121042E0,1.042881317E0,-7.967182159E0,-4.506378937E0,9.335858041E0,3.206203580E-1,-4.110877216E-1,3.595350087E-1
9.342082042E0,1.889820099E0,-7.328759766E0,-2.043550415E0,9.345819042E0,3.518752158E-1,-4.215896130E-2,2.300233543E-1
9.352043041E0,2.548450470E0,-6.767427063E0,-1.265169067E0,9.355780042E0,2.568041086E-1,3.054450750E-1,8.964654058E-2
9.362004042E0,2.884950714E0,-6.534212036E0,-1.099463654E0,9.365741041E0,1.121012494E-1,5.313503742E-1,2.663268242E-4
9.371965041E0,2.578687592E0,-6.647676086E0,-6.620732117E-1,9.375702042E0,9.780086577E-3,6.565683484E-1,3.941517789E-4
9.381925042E0,1.693877563E0,-6.993007965E0,1.341210938E-1,9.385662042E0,-2.403875580E-3,7.675890923E-1,6.589806080E-2
9.391886041E0,7.363188171E-1,-7.327711945E0,1.159189453E0,9.395623042E0,8.761761338E-2,8.691142797E-1,1.519570202E-1
9.401847042E0,-2.288740540E-1,-7.819289703E0,2.079026642E0,9.405584041E0,2.713275254E-1,8.822253346E-1,2.756763101E-1
9.411808041E0,-1.037791901E0,-8.459358673E0,2.594105530E0,9.415545042E0,5.256988406E-1,7.934773564E-1,4.358298182E-1
9.421769042E0,-1.210832062E0,-8.874744873E0,2.608924713E0,9.425506041E0,8.331527710E-1,7.018885612E-1,5.923525691E-1
9.431730042E0,-1.090632019E0,-8.960666199E0,2.657723236E0,9.435467042E0,1.189128399E0,7.314077616E-1,7.231715322E-1
9.441691041E0,-9.125024414E-1,-8.756191406E0,2.190993805E0,9.445428042E0,1.474654675E0,6.113349199E-1,7.777433991E-1
9.451652042E0,-4.719685364E-1,-8.404123535E0,2.978805542E-2,9.455389041E0,1.601358294E0,3.138974905E-1,7.818061113E-1
9.461612166E0,-3.941304016E-1,-8.275840302E0,-2.575394440E0,9.465349167E0,1.494881868E0,1.235640496E-1,7.856572866E-1
9.471573167E0,-4.183799744E-1,-8.487200775E0,-4.994513855E0,9.475310166E0,1.102030158E0,1.959795803E-1,8.126511574E-1
9.481534167E0,-1.076261902E-1,-9.040001221E0,-6.809040527E0,9.485271167E0,5.039878488E-1,4.563666880E-1,8.376492262E-1
9.491495166E0,6.346801758E-1,-9.510023804E0,-6.928641815E0,9.495232167E0,-4.361801594E-2,6.379710436E-1,7.821509242E-1
9.501456167E0,1.414109344E0,-9.519154816E0,-5.009782104E0,9.505193166E0,-3.758795857E-1,6.483400464E-1,6.790229678E-1
9.511417167E0,1.625619507E0,-9.316326599E0,-2.648891602E0,9.515154167E0,-4.736046791E-1,5.733401775E-1,5.611506104E-1
9.521378167E0,1.393302612E0,-9.154662781E0,-7.033872986E-1,9.525115167E0,-3.861142397E-1,5.541249514E-1,4.644796848E-1
9.531339167E0,1.213077393E0,-9.076375580E0,8.595126343E-1,9.535076167E0,-1.603007317E-1,5.888292193E-1,4.139972627E-1
9.541299167E0,1.304836578E0,-9.033115540E0,1.733096008E0,9.545036166E0,9.903177619E-2,5.993694663E-1,4.013927877E-1
9.551260167E0,1.564247131E0,-9.093140717E0,1.289718018E0,9.554997167E0,3.256894350E-1,5.543304086E-1,3.917208314E-1
9.561221167E0,1.957479401E0,-9.051527252E0,5.800437927E-1,9.564958167E0,5.431975126E-1,5.982416868E-1,3.687017858E-1
9.571182167E0,2.502645721E0,-9.011859741E0,8.038284302E-2,9.574919167E0,7.144389153E-1,7.546394467E-1,3.279781342E-1
9.581143166E0,3.219954071E0,-9.141639862E0,-9.683363342E-1,9.584880167E0,7.235213518E-1,8.129248619E-1,2.220996320E-1
9.591104167E0,3.942351837E0,-9.672286377E0,-2.492915955E0,9.594841166E0,6.224378943E-1,8.480330110E-1,1.250315905E-1
9.601065167E0,3.852089539E0,-1.028765671E1,-3.117117920E0,9.604802167E0,5.091491938E-1,7.766975760E-1,5.778997019E-2
9.611026166E0,3.513343964E0,-1.091739716E1,-3.304827576E0,9.614763167E0,4.409538507E-1,5.765437484E-1,9.649738669E-3
9.620986166E0,3.320694580E0,-1.144160706E1,-3.200494537E0,9.624723167E0,4.275283217E-1,3.221420348E-1,-7.056413591E-2
9.630947167E0,3.321892090E0,-1.181313446E1,-2.783312073E0,9.634684166E0,4.125019908E-1,1.370648742E-1,-1.755348295E-1
9.640908167E0,3.117566986E0,-1.202389618E1,-2.420316925E0,9.644645167E0,3.397023678E-1,1.741969399E-2,-2.823768556E-1
9.650869166E0,2.597548370E0,-1.207359283E1,-2.194436646E0,9.654606167E0,2.606526613E-1,-5.487293005E-2,-3.906851113E-1
9.660830167E0,2.012864227E0,-1.237057526E1,-1.872456207E0,9.664567166E0,2.083023787E-1,-1.387326717E-1,-5.015104413E-1
9.670791166E0,1.572629700E0,-1.298849030E1,-1.652713165E0,9.674528167E0,1.562816501E-1,-2.366770655E-1,-6.354689598E-1
9.680752167E0,1.360670471E0,-1.347048798E1,-1.400487671E0,9.684489166E0,5.426234752E-2,-3.074484468E-1,-7.978925109E-1
9.690712166E0,1.284927979E0,-1.346689545E1,-9.460327148E-1,9.694449167E0,-1.199181005E-1,-3.300960064E-1,-9.562146068E-1
9.700673167E0,9.386979675E-1,-1.304791672E1,-5.396278381E-1,9.704410166E0,-3.185768723E-1,-3.382546008E-1,-1.080631614E0
9.710634166E0,5.141807556E-1,-1.236024673E1,-5.691165161E-1,9.714371167E0,-5.004891157E-1,-3.491733074E-1,-1.184183598E0
9.720595167E0,9.909393311E-2,-1.150178192E1,-6.698570251E-1,9.724332166E0,-6.740412116E-1,-3.800289631E-1,-1.264666557E0
9.730556167E0,-3.293151855E-1,-1.065304688E1,-7.144642639E-1,9.734293167E0,-8.347062469E-1,-4.299133122E-1,-1.297782302E0
9.740517166E0,-8.723858643E-1,-9.790690155E0,-8.307723999E-1,9.744254167E0,-9.787145257E-1,-4.766994417E-1,-1.296504021E0
9.750478167E0,-1.468895416E0,-9.081315308E0,-1.128802643E0,9.754215166E0,-1.127523303E0,-4.663883150E-1,-1.278710365E0
9.760439167E0,-2.205962677E0,-8.771759033E0,-1.548380127E0,9.764176167E0,-1.278225183E0,-3.444610536E-1,-1.233697653E0
9.770399167E0,-3.271596680E0,-9.152417450E0,-1.833686829E0,9.774136167E0,-1.426887989E0,-8.201473206E-2,-1.118879318E0
9.780360166E0,-4.499044189E0,-1.028256729E1,-1.995949402E0,9.784097167E0,-1.577705383E0,2.613490224E-1,-9.122949839E-1
9.790321167E0,-5.753884735E0,-1.203407501E1,-1.862876129E0,9.794058166E0,-1.626683712E0,6.690792441E-1,-5.405325890E-1
9.800282167E0,-7.164850616E0,-1.430126038E1,-7.945477295E-1,9.804019167E0,-1.493867040E0,1.166687965E0,-8.286011219E-2
9.810243167E0,-7.764803009E0,-1.573048828E1,6.848258972E-1,9.813980167E0,-1.249557257E0,1.676740885E0,2.735212445E-1
9.820204167E0,-6.991660767E0,-1.552391785E1,1.055305481E0,9.823941167E0,-1.068248272E0,1.883233309E0,2.969027460E-1
9.830165166E0,-4.929099884E0,-1.366149078E1,-1.365161133E-1,9.833902167E0,-1.045255780E0,1.599211454E0,5.000707135E-2
9.840125167E0,-3.011587372E0,-1.182780396E1,-1.700314178E0,9.843862167E0,-1.163368583E0,1.045355201E0,-3.722742945E-2
9.850086167E0,-2.110461273E0,-1.102891525E1,-2.377206573E0,9.853823167E0,-1.390575051E0,6.412084699E-1,2.484200709E-2
9.860047167E0,-7.315287781E-1,-1.022867935E1,-2.485730896E0,9.863784167E0,-1.646941543E0,4.200949669E-1,-1.174290106E-2
9.870008166E0,1.371148682E0,-9.341174927E0,-2.511926422E0,9.873745167E0,-1.856643081E0,4.171063304E-1,-1.671837717E-1
9.879969167E0,2.727328491E0,-9.025930481E0,-2.148033142E0,9.883706166E0,-1.985026360E0,7.636605501E-1,-4.143778682E-1
9.889930167E0,3.504662018E0,-8.844657440E0,-1.945504303E0,9.893667167E0,-1.934598923E0,9.742911458E-1,-7.346082926E-1
9.899891166E0,4.294569397E0,-8.707841949E0,-2.609972534E0,9.903628167E0,-1.694770098E0,9.509570599E-1,-1.066871166E0
9.909851166E0,4.639003143E0,-8.794960785E0,-2.727777557E0,9.913588167E0,-1.351560831E0,7.591968179E-1,-1.286742449E0
9.919812167E0,4.176015930E0,-8.991202698E0,-2.289339294E0,9.923549166E0,-1.015355587E0,4.676073492E-1,-1.413855672E0
9.929773167E0,3.848946075E0,-8.837472382E0,-2.409838715E0,9.933510167E0,-8.309575319E-1,5.021890998E-2,-1.468673110E0
9.939734166E0,3.322341156E0,-8.369545441E0,-3.052602081E0,9.943471167E0,-7.506057024E-1,-3.907470405E-1,-1.405293703E0
9.949695167E0,2.536325684E0,-7.974516907E0,-3.046015778E0,9.953432166E0,-7.141900063E-1,-9.133762121E-1,-1.257906079E0
9.959656166E0,1.903890839E0,-7.400310974E0,-3.151546326E0,9.963393167E0,-6.527612805E-1,-1.268588424E0,-1.108325124E0
9.969616167E0,1.324894867E0,-6.680457916E0,-2.423759766E0,9.973353167E0,-5.310160518E-1,-1.456784725E0,-9.809053540E-1
9.979577166E0,8.470884705E-1,-5.704038391E0,-2.034269714E0,9.983314167E0,-3.879353404E-1,-1.647527337E0,-8.765438199E-1
9.989538167E0,4.326004028E-1,-4.951702881E0,-1.960772552E0,9.993275166E0,-2.413880974E-1,-1.791274548E0,-7.293098569E-1
9.999499166E0,2.230361938E-2,-4.642895050E0,-1.652413788E0,1.000323617E1,-9.031202644E-2,-1.816191316E0,-5.449972749E-1
1.000946017E1,-3.397933960E-1,-4.446653137E0,-1.467398529E0,1.001319717E1,3.908669949E-2,-1.737025976E0,-3.338698447E-1
1.001942117E1,-5.331912231E-1,-4.351750488E0,-1.453327789E0,1.002315817E1,1.823506504E-1,-1.586115837E0,-1.215889975E-1
1.002938217E1,-5.447172546E-1,-4.186793518E0,-1.337768097E0,1.003311917E1,3.552958965E-1,-1.404791951E0,4.915631190E-2
1.003934217E1,-2.628533936E-1,-4.154161377E0,-1.257684631E0,1.004307917E1,5.501812696E-1,-1.154403090E0,1.833705902E-1
1.004930317E1,-4.939727783E-2,-4.345912628E0,-1.279688873E0,1.005304017E1,7.421028614E-1,-8.840236664E-1,3.020085394E-1
1.005926417E1,7.574249268E-2,-4.666845245E0,-1.560953979E0,1.006300117E1,8.844363093E-1,-5.621849298E-1,4.090639055E-1
