"time_acc","acc_x","acc_y","acc_z","time_gyro","gyro_x","gyro_y","gyro_z"
-3.050208325E-3,-8.307723999E-2,-8.290659485E0,-1.342707825E0,5.684791598E-3,1.430282950E0,6.473531723E-1,-6.630619764E-1
6.931791664E-3,-1.467997284E0,-7.609575806E0,-1.200204163E0,1.566679159E-2,1.383351088E0,2.406136096E-1,-4.949355125E-1
1.691379165E-2,-2.532284088E0,-7.016359406E0,-9.598040771E-1,2.564879158E-2,1.321167469E0,-4.363785684E-2,-2.501242757E-1
2.689579164E-2,-3.319946136E0,-6.563700714E0,-7.394622803E-1,3.563079168E-2,1.249652267E0,-1.396304220E-1,2.257275395E-2
3.687779163E-2,-3.545826416E0,-6.232439575E0,-4.846920776E-1,4.561279167E-2,1.129949689E0,-9.809790552E-2,2.706125677E-1
4.686079163E-2,-3.314407654E0,-6.384373627E0,-4.156855774E-1,5.559579167E-2,1.000372767E0,7.114811242E-2,4.322382212E-1
5.684279162E-2,-2.523003387E0,-7.008874969E0,-5.285508728E-1,6.557779165E-2,9.254103899E-1,1.435611546E-1,5.127524137E-1
6.682479160E-2,-1.381626892E0,-7.849227448E0,-1.901046753E-1,7.555979164E-2,9.041903019E-1,1.666808575E-1,5.110911131E-1
7.680679159E-2,-2.092648315E-1,-8.345445557E0,2.573149109E-1,8.554179163E-2,9.468743205E-1,2.822304070E-1,4.966045320E-1
8.678879158E-2,5.813909912E-1,-8.644822998E0,4.945715332E-1,9.552379162E-2,1.042836785E0,4.624294937E-1,4.209140241E-1
9.677079169E-2,1.100062408E0,-8.866511993E0,6.042933655E-1,1.055057916E-1,1.159391761E0,6.641946435E-1,3.333671987E-1
1.067527917E-1,1.416803741E0,-8.962163086E0,4.584965515E-1,1.154877916E-1,1.244830012E0,7.970743775E-1,2.745275795E-1
1.167347917E-1,1.217268677E0,-9.094487915E0,1.318757629E-1,1.254697916E-1,1.257216454E0,9.069771767E-1,2.264408022E-1
1.267167917E-1,1.003812561E0,-9.138945465E0,-3.336561584E-1,1.354517916E-1,1.237452030E0,1.002624869E0,2.302227616E-1
1.366987916E-1,5.578898621E-1,-9.038204956E0,-4.555027771E-1,1.454337917E-1,1.217143536E0,1.039883494E0,2.963120937E-1
1.466807916E-1,1.085243225E-1,-8.800948334E0,-2.335144043E-1,1.554157917E-1,1.185190916E0,9.513606429E-1,3.471220136E-1
1.566627916E-1,-1.338217163E-1,-8.541687469E0,2.245330811E-3,1.653977917E-1,1.177001595E0,8.157942891E-1,4.028740227E-1
1.666447916E-1,-1.657054138E-1,-8.372838593E0,1.535806274E-1,1.753797916E-1,1.217409253E0,6.880086064E-1,4.853966236E-1
1.766267916E-1,-4.297563171E-1,-8.270002441E0,3.140469360E-1,1.853617916E-1,1.291566014E0,5.522214174E-1,5.858804584E-1
1.866087916E-1,-7.255412292E-1,-8.114775238E0,3.239263916E-1,1.953437916E-1,1.347687602E0,3.759653866E-1,6.501382589E-1
1.965907916E-1,-7.526348877E-1,-8.313112793E0,-7.903564453E-2,2.053257916E-1,1.332631469E0,1.581162959E-1,6.688864231E-1
2.065727917E-1,-5.623805237E-1,-8.724158020E0,-7.396119690E-1,2.153077916E-1,1.246833682E0,2.179707214E-2,6.669694781E-1
2.165547917E-1,-2.359094238E-1,-9.382638702E0,-1.386716309E0,2.252897916E-1,1.101011038E0,2.090007626E-2,6.748944521E-1
2.265367917E-1,1.901046753E-2,-9.863139496E0,-1.673669586E0,2.352717916E-1,9.076836109E-1,1.363017708E-1,6.571497917E-1
2.365187916E-1,4.552033997E-1,-1.029753616E1,-1.826801147E0,2.452537917E-1,7.053160667E-1,3.244348764E-1,6.145163178E-1
2.465007916E-1,9.108558655E-1,-1.061921722E1,-1.801653442E0,2.552357917E-1,5.062743425E-1,4.724893272E-1,5.418288112E-1
2.564827916E-1,1.258283386E0,-1.094643677E1,-1.614243164E0,2.652177917E-1,3.116216063E-1,5.594814420E-1,4.391538799E-1
2.664654166E-1,1.722468109E0,-1.115779724E1,-1.403331757E0,2.752004167E-1,1.688423455E-1,6.593576670E-1,3.608132899E-1
2.764484166E-1,1.913919983E0,-1.113459549E1,-7.869136047E-1,2.851834167E-1,5.359050632E-2,6.233597994E-1,2.409137636E-1
2.864304166E-1,2.030527496E0,-1.088042404E1,2.694396973E-2,2.951654167E-1,8.639810607E-3,5.036509633E-1,1.139166653E-1
2.964124166E-1,2.148332520E0,-1.047312103E1,6.069877625E-1,3.051474167E-1,5.256315321E-2,3.714227378E-1,5.359837040E-2
3.063944166E-1,1.702409821E0,-1.003123993E1,1.153650970E0,3.151294166E-1,1.371051967E-1,2.452813238E-1,3.240839764E-2
3.163764166E-1,1.218017120E0,-9.744436340E0,1.212029572E0,3.251114166E-1,1.812117547E-1,1.672793329E-1,4.210093990E-2
3.263584166E-1,9.324110413E-1,-9.560917969E0,7.637118530E-1,3.350934166E-1,1.074485928E-1,1.081528813E-1,5.683914199E-2
3.363404166E-1,9.966275024E-1,-9.605674896E0,1.916015625E-2,3.450754166E-1,-8.923713863E-2,-1.972933067E-3,5.736894161E-2
3.463224167E-1,1.199455719E0,-1.004007156E1,-7.038363647E-1,3.550574166E-1,-3.503515720E-1,-1.744610816E-1,3.237117827E-2
3.563044167E-1,1.368154907E0,-1.104867416E1,-1.144220581E0,3.650394166E-1,-5.964673162E-1,-3.669664562E-1,-2.877704054E-2
3.662864167E-1,1.500330048E0,-1.251652176E1,-1.236877899E0,3.750214166E-1,-7.900820971E-1,-5.098690391E-1,-1.679136157E-1
3.762684166E-1,1.771566010E0,-1.384485947E1,-1.138532410E0,3.850034167E-1,-9.835515022E-1,-5.269864202E-1,-3.918255866E-1
3.862504166E-1,2.135908356E0,-1.439825867E1,-9.134005737E-1,3.949854167E-1,-1.217653394E0,-4.178860188E-1,-6.262165308E-1
3.962324166E-1,2.378703461E0,-1.434871170E1,-8.222401428E-1,4.049674167E-1,-1.457694054E0,-2.673842907E-1,-8.030006289E-1
4.062144166E-1,2.121089172E0,-1.420860306E1,-6.447093201E-1,4.149494166E-1,-1.671570659E0,-1.711837202E-1,-9.432528019E-1
4.161964166E-1,1.374292145E0,-1.451965622E1,-6.007008362E-1,4.249314166E-1,-1.879608274E0,-1.776524931E-1,-1.079333305E0
4.261784166E-1,4.029620361E-1,-1.492082199E1,-8.131091309E-1,4.349134166E-1,-2.137076378E0,-1.874702424E-1,-1.121159077E0
4.361604166E-1,-8.123606873E-1,-1.479942444E1,-1.279239807E0,4.448954166E-1,-2.494493961E0,-1.447425783E-1,-1.036667109E0
4.461424167E-1,-2.455643463E0,-1.409229492E1,-1.784588928E0,4.548774166E-1,-2.826390028E0,-1.240370609E-2,-8.995659947E-1
4.561244167E-1,-3.635040894E0,-1.317126022E1,-1.624571686E0,4.648594166E-1,-2.992209196E0,7.499502599E-2,-8.004799485E-1
4.661064167E-1,-4.490362244E0,-1.258388168E1,-6.496490479E-1,4.748414166E-1,-2.913157463E0,-1.216224860E-2,-7.642889619E-1
4.760884166E-1,-5.396877136E0,-1.273327103E1,3.803590393E-1,4.848234167E-1,-2.660073519E0,-1.233079508E-1,-7.190135717E-1
4.860704166E-1,-6.540648651E0,-1.337992630E1,1.243464203E0,4.948054167E-1,-2.367430449E0,-2.959424071E-2,-5.960626602E-1
4.960534166E-1,-7.838449860E0,-1.422896072E1,1.582209778E0,5.047884167E-1,-2.141475439E0,3.844749928E-1,-3.703397512E-1
5.060354166E-1,-8.687633972E0,-1.484358261E1,1.442699890E0,5.147704167E-1,-2.005426407E0,9.645932317E-1,-1.175008267E-1
5.160174166E-1,-8.488248596E0,-1.489747055E1,1.110839996E0,5.247524166E-1,-1.960312843E0,1.387717247E0,7.288910449E-2
5.259994166E-1,-6.843618622E0,-1.419004166E1,5.348377991E-1,5.347344166E-1,-1.950997949E0,1.618986964E0,1.599156260E-1
5.359814166E-1,-4.595743103E0,-1.297052765E1,5.149291992E-2,5.447164166E-1,-1.929767489E0,1.623272061E0,1.720650494E-1
5.459634166E-1,-2.521356812E0,-1.191447372E1,-2.191442871E-1,5.546984166E-1,-1.910872936E0,1.347400308E0,1.312550455E-1
5.559454167E-1,-7.698490906E-1,-1.127350662E1,-4.746629333E-1,5.646804166E-1,-1.960061431E0,9.054745436E-1,2.928669564E-2
5.659274167E-1,7.358697510E-1,-1.119716537E1,-9.792636108E-1,5.746624166E-1,-2.005309820E0,4.588352144E-1,-7.784055918E-2
5.759094167E-1,1.813778229E0,-1.146196472E1,-1.265318756E0,5.846444166E-1,-2.019710779E0,1.908060312E-1,-9.707947075E-2
5.858914166E-1,1.692081299E0,-1.148726212E1,-8.479866028E-1,5.946264167E-1,-2.081148148E0,-1.780154109E-1,-8.278468996E-2
5.958734166E-1,5.773493958E-1,-1.135059631E1,-8.720864868E-1,6.046084167E-1,-2.157436609E0,-7.373820543E-1,-1.413902044E-1
6.058554166E-1,2.386038208E-1,-1.048494644E1,-1.123862915E0,6.145904167E-1,-2.124088049E0,-1.361472368E0,-2.595008612E-1
6.158374166E-1,5.947132874E-1,-9.465715942E0,-4.635859680E-1,6.245724167E-1,-2.085037470E0,-1.608600736E0,-3.995505273E-1
6.258194166E-1,7.104226685E-1,-8.786877594E0,2.993774414E-1,6.345544166E-1,-2.103670120E0,-1.486307859E0,-5.156760812E-1
6.358014166E-1,7.000941467E-1,-8.200995941E0,-1.841171265E-2,6.445364166E-1,-2.082275152E0,-1.257490277E0,-5.054600239E-1
6.457834166E-1,-3.459306335E-1,-7.731721802E0,-2.502795410E-1,6.545184166E-1,-1.934334397E0,-9.785931110E-1,-4.381132126E-1
6.557654167E-1,-1.335971832E0,-7.140601044E0,2.369572449E-1,6.645004166E-1,-1.686487913E0,-7.775605917E-1,-3.882825375E-1
6.657474167E-1,-1.950144653E0,-6.591093750E0,1.070873108E0,6.744824166E-1,-1.477288365E0,-8.985141516E-1,-3.440458477E-1
6.757294167E-1,-2.133213959E0,-6.140979767E0,1.040486298E0,6.844644166E-1,-1.327680230E0,-1.136123538E0,-3.295016587E-1
6.857114166E-1,-2.073488159E0,-5.696853333E0,6.200106812E-1,6.944464166E-1,-1.196243644E0,-1.344045758E0,-3.499107957E-1
6.956934166E-1,-1.833088074E0,-5.086572418E0,3.715274048E-1,7.044294167E-1,-1.074892163E0,-1.548506618E0,-4.075228274E-1
7.056764166E-1,-1.474433899E0,-4.376299438E0,-1.317260742E-2,7.144114167E-1,-9.347674847E-1,-1.562764049E0,-4.154870212E-1
7.156584166E-1,-1.302142181E0,-3.954476624E0,-4.855902100E-1,7.243934167E-1,-7.548323870E-1,-1.377609015E0,-3.897918463E-1
7.256404166E-1,-1.343306580E0,-3.781735840E0,-8.198451233E-1,7.343754167E-1,-5.338611007E-1,-1.107251525E0,-3.216279745E-1
7.356224166E-1,-1.180744629E0,-3.585643616E0,-1.241967316E0,7.443574166E-1,-2.679401338E-1,-7.763907313E-1,-2.572730482E-1
7.456044166E-1,-1.020278320E0,-3.482208710E0,-1.352138214E0,7.543394166E-1,9.994810447E-3,-4.975084960E-1,-2.073731422E-1
7.555864166E-1,-7.363188171E-1,-3.526965637E0,-1.343456268E0,7.643214166E-1,2.788309753E-1,-2.907636762E-1,-1.710803658E-1
7.655684167E-1,-5.174739075E-1,-3.635639648E0,-1.285377045E0,7.743034166E-1,5.276789069E-1,-1.384527236E-1,-1.400846243E-1
7.755504167E-1,-4.433779907E-1,-3.805686035E0,-9.081614685E-1,7.842854166E-1,7.642166018E-1,-8.078101277E-2,-1.275050789E-1
7.855324167E-1,-3.948788452E-1,-3.820056152E0,-5.700146484E-1,7.942674166E-1,1.000514388E0,-1.311016977E-1,-1.315797120E-1
7.955144166E-1,-3.996688843E-1,-3.733685760E0,-3.225791931E-1,8.042494166E-1,1.247800827E0,-1.789679825E-1,-1.503098011E-1
8.054964166E-1,-6.164181519E-1,-3.617677002E0,-1.857637024E-1,8.142314167E-1,1.513826609E0,-2.862712741E-1,-1.640104353E-1
8.154784166E-1,-8.906478882E-1,-3.518433380E0,-3.233276367E-1,8.242134167E-1,1.808444500E0,-4.927657545E-1,-1.624361426E-1
8.254604166E-1,-1.171613617E0,-3.504811707E0,-7.325765991E-1,8.341954167E-1,2.120653868E0,-6.780285239E-1,-1.566935629E-1
8.354424166E-1,-1.336720276E0,-3.592529297E0,-1.313069458E0,8.441774166E-1,2.413591385E0,-8.647903800E-1,-1.322193295E-1
8.454244166E-1,-1.301393738E0,-3.903881836E0,-2.085163879E0,8.541594166E-1,2.610499620E0,-9.918279052E-1,-6.531299651E-2
8.554064166E-1,-1.228944397E0,-4.672383728E0,-3.353326721E0,8.641414166E-1,2.634992599E0,-9.820563197E-1,6.249877065E-2
8.653884167E-1,-1.129251709E0,-6.190077667E0,-4.893623657E0,8.741234166E-1,2.504500151E0,-9.116929770E-1,2.129748315E-1
8.753704167E-1,-8.616082764E-1,-8.664881287E0,-5.897885284E0,8.841054166E-1,2.128926039E0,-6.322613358E-1,2.934182286E-1
8.853524167E-1,-4.209246826E-1,-1.181343384E1,-6.566694489E0,8.940874166E-1,1.177489042E0,-1.384012848E-1,2.417379767E-1
8.953344167E-1,3.100053406E-1,-1.537737259E1,-9.430988159E0,9.040694166E-1,-3.418109417E-1,4.020052254E-1,7.727131993E-2
9.053174166E-1,8.399034119E-1,-1.963002914E1,-1.531165924E1,9.140524167E-1,-1.615833044E0,4.496819377E-1,-2.223982066E-1
9.152994166E-1,5.953120422E-1,-2.422667038E1,-1.953662338E1,9.240344167E-1,-1.957942724E0,-4.939669073E-1,-4.933637381E-1
9.252814166E-1,-8.446934509E-1,-2.635359741E1,-1.771790543E1,9.340164167E-1,-1.596165538E0,-1.619761825E0,-7.099399567E-1
9.352634166E-1,-2.538421326E0,-2.308664108E1,-1.264031433E1,9.439984167E-1,-1.114236474E0,-2.127683640E0,-9.612774253E-1
9.452454166E-1,-2.290237427E0,-1.574979813E1,-9.397607574E0,9.539804166E-1,-6.954810023E-1,-2.009162188E0,-1.058541656E0
9.552274166E-1,-1.334924011E0,-9.404343567E0,-7.796387329E0,9.639624166E-1,-3.461142778E-1,-1.406401396E0,-9.741989374E-1
9.652094166E-1,-8.809181213E-1,-5.072202301E0,-5.843548279E0,9.739444166E-1,-6.229534373E-2,-7.199867368E-1,-7.456986904E-1
9.751914167E-1,-3.005749512E-1,-1.527872772E0,-3.636687469E0,9.839264166E-1,1.709765494E-1,2.033396065E-1,-4.647640586E-1
9.851734167E-1,-1.624122620E-1,6.698570251E-1,-2.122136993E0,9.939084166E-1,4.945748448E-1,9.420405626E-1,-1.211859137E-1
9.951554167E-1,-1.148711243E0,4.236190796E-2,-8.955876160E-1,1.003890417E0,9.312139153E-1,1.687318325E0,1.886438131E-1
1.005137417E0,-3.208428040E0,-4.046834564E0,8.985813904E-1,1.013872417E0,1.251672149E0,2.126456976E0,5.257645845E-1
1.015119417E0,-5.390141144E0,-9.897717590E0,2.400258636E0,1.023854417E0,1.501124740E0,1.979556084E0,1.011347890E0
1.025101417E0,-7.057823181E0,-1.750010834E1,2.918031921E0,1.033836417E0,1.729532599E0,1.196124077E0,1.392666221E0
1.035083417E0,-7.572752380E0,-2.485341705E1,4.590354309E0,1.043818417E0,1.433101177E0,1.572496071E-2,1.122299433E0
1.045065417E0,-6.003116455E0,-2.839460312E1,2.749931488E0,1.053800417E0,3.477674425E-1,-2.670731843E-1,2.455233783E-1
1.055047417E0,-7.848179626E-1,-2.512495239E1,-2.944526825E0,1.063782417E0,-6.519775391E-1,3.816706538E-1,-3.437736332E-1
1.065029417E0,3.528911591E0,-1.765219208E1,-4.505031738E0,1.073764417E0,-1.083731890E0,1.000009179E0,-3.335433602E-1
1.075011417E0,2.652633820E0,-1.225815903E1,-1.683998108E-1,1.083746417E0,-1.194571376E0,1.300621033E0,-1.838669330E-1
1.084993417E0,6.300398254E-1,-8.011789398E0,1.195863190E0,1.093729417E0,-8.749646544E-1,1.473295808E0,-2.419185042E-1
1.094976417E0,2.168989563E-1,-4.460574188E0,1.760489044E0,1.103711417E0,-6.593777239E-2,1.460891843E0,-3.679190576E-1
1.104958417E0,9.759704590E-2,-1.709594879E0,3.803291016E0,1.113693417E0,1.008450866E0,1.174122453E0,-2.389671803E-1
1.114940417E0,-6.653663635E-1,2.829116821E-1,5.564678192E0,1.123675417E0,1.897224784E0,1.111193419E0,1.087555960E-1
1.124922417E0,-1.876647491E0,4.929249573E-1,6.300547943E0,1.133657417E0,2.214354277E0,1.347191811E0,5.107997060E-1
1.134904417E0,-2.723586273E0,-1.107247467E0,5.283712463E0,1.143639417E0,2.096741199E0,1.427538753E0,9.689681530E-1
1.144886417E0,-3.326233063E0,-3.539389801E0,3.656745758E0,1.153621417E0,1.813878417E0,1.063591719E0,1.319561601E0
1.154868417E0,-3.349434814E0,-6.353238373E0,3.008443909E0,1.163603417E0,1.469612002E0,3.118486702E-1,1.351967692E0
1.164850417E0,-2.195185089E0,-9.937983856E0,2.747835846E0,1.173585417E0,1.232124090E0,-4.401222765E-1,1.123851418E0
1.174832417E0,-7.391629028E-1,-1.382914215E1,2.757565613E0,1.183567417E0,1.208858967E0,-1.079046607E0,7.714979053E-1
1.184814417E0,8.689430237E-1,-1.764590515E1,2.855462036E0,1.193549417E0,1.452933431E0,-1.602728367E0,3.547805846E-1
1.194796417E0,2.911595306E0,-1.962703537E1,2.600691833E0,1.203531417E0,1.815243602E0,-1.812771201E0,-8.668760955E-2
1.204778417E0,4.683760071E0,-1.914788177E1,1.496737518E0,1.213513417E0,2.112111807E0,-1.269078970E0,-4.967494309E-1
1.214760417E0,4.875810699E0,-1.713292191E1,-6.900650024E-2,1.223495417E0,2.159491777E0,-3.612530529E-1,-9.078071713E-1
1.224742417E0,4.171375580E0,-1.350042572E1,-1.619781647E0,1.233477417E0,1.898548722E0,6.278585792E-1,-1.199591637E0
1.234724417E0,2.434537354E0,-1.029858398E1,-3.822451172E0,1.243459417E0,1.574805260E0,1.488226891E0,-1.275284767E0
1.244706417E0,-4.815486145E-1,-8.618178406E0,-4.529880066E0,1.253441417E0,1.415478945E0,1.837393761E0,-1.117260695E0
1.254688417E0,-2.776875458E0,-7.500752106E0,-3.314108276E0,1.263423417E0,1.354813337E0,1.703725576E0,-7.581408620E-1
1.264670417E0,-4.768184509E0,-6.414011993E0,-1.654210052E0,1.273405333E0,1.257120371E0,1.236908555E0,-3.316894174E-1
1.274653333E0,-6.215973816E0,-5.673801270E0,-8.098159790E-1,1.283388333E0,1.093180656E0,6.923934817E-1,2.443360165E-2
1.284635333E0,-6.378086700E0,-5.465434570E0,-4.796026611E-1,1.293370333E0,8.490567803E-1,3.373152316E-1,3.158950210E-1
1.294617333E0,-5.510341187E0,-5.854924622E0,-2.351609802E-1,1.303352333E0,5.804981589E-1,1.917924881E-1,5.431812406E-1
1.304599333E0,-4.043840790E0,-6.775659943E0,-4.999603271E-1,1.313334333E0,4.377292693E-1,2.126844525E-1,7.196977139E-1
1.314581333E0,-2.605481873E0,-7.528145142E0,-1.836680603E-1,1.323316333E0,4.082443714E-1,4.046511650E-1,8.034425974E-1
1.324563333E0,-1.210233307E0,-8.215964813E0,3.956272888E-1,1.333298333E0,4.553279877E-1,6.690154076E-1,7.827964425E-1
1.334545333E0,9.535171509E-2,-8.985813904E0,8.131091309E-1,1.343280333E0,5.844889283E-1,8.009494543E-1,6.807481647E-1
1.344527333E0,1.162033539E0,-9.582173767E0,1.345402222E0,1.353262333E0,7.564138174E-1,8.054845929E-1,5.365763903E-1
1.354509333E0,2.011067963E0,-9.812395020E0,1.902393951E0,1.363244333E0,9.069650173E-1,7.619068623E-1,3.896788061E-1
1.364491333E0,2.491718445E0,-9.661658478E0,2.234702911E0,1.373226333E0,1.036894798E0,6.682744026E-1,2.394607961E-1
1.374473333E0,2.719993744E0,-9.491761780E0,2.155816956E0,1.383208333E0,1.195288539E0,6.144711971E-1,1.328447014E-1
1.384455333E0,2.428699493E0,-9.110654297E0,2.275867310E0,1.393190333E0,1.375212550E0,5.605491400E-1,8.841384947E-2
1.394437333E0,1.759441223E0,-8.659492493E0,2.106120300E0,1.403172333E0,1.559460759E0,4.759758413E-1,8.817151934E-2
1.404419333E0,7.833210754E-1,-8.194858704E0,1.540296936E0,1.413154333E0,1.744751811E0,3.618218303E-1,1.045419723E-1
1.414401333E0,-1.032852173E-1,-7.972271576E0,8.939410400E-1,1.423136333E0,1.904870272E0,2.952274382E-1,1.291680634E-1
1.424383333E0,-7.756869507E-1,-8.051157532E0,2.983296204E-1,1.433118333E0,1.995068431E0,3.059416115E-1,1.889970303E-1
1.434365333E0,-1.387614441E0,-8.520731049E0,-3.236270142E-1,1.443100333E0,1.965962648E0,4.151570201E-1,2.711836696E-1
1.444347333E0,-1.821711731E0,-9.332343292E0,-1.181642761E0,1.453082333E0,1.789657474E0,6.108613014E-1,3.420602381E-1
1.454329333E0,-1.874252472E0,-1.000369720E1,-2.204465790E0,1.463064333E0,1.490280151E0,8.148117661E-1,4.048294127E-1
1.464312333E0,-1.572779388E0,-1.019170624E1,-3.109633484E0,1.473047333E0,1.121771574E0,8.858768940E-1,4.473063052E-1
1.474294333E0,-1.037043457E0,-1.015772690E1,-3.505709839E0,1.483029333E0,7.710196972E-1,7.882388830E-1,4.809919298E-1
1.484276333E0,-4.790039062E-1,-1.040231827E1,-3.276536407E0,1.493011333E0,5.053063035E-1,5.987424254E-1,4.737316370E-1
1.494258333E0,-1.496887207E-3,-1.136631363E1,-2.690804443E0,1.502993333E0,3.292975724E-1,4.718022943E-1,4.462637007E-1
1.504240333E0,3.990701294E-1,-1.229094086E1,-1.783840485E0,1.512975333E0,1.923330873E-1,4.831798375E-1,3.933373690E-1
1.514222333E0,1.091679840E0,-1.285990768E1,-1.043779449E0,1.522957333E0,7.926602662E-2,6.326080561E-1,3.679576218E-1
1.524204333E0,1.722168732E0,-1.253942413E1,-3.224295044E-1,1.532939333E0,-9.232675657E-3,7.698045373E-1,2.862995267E-1
1.534186333E0,2.380948792E0,-1.213691116E1,9.250762939E-2,1.542921333E0,-1.513460651E-2,7.588772178E-1,1.406892091E-1
1.544168333E0,2.660417633E0,-1.182555862E1,5.029541016E-1,1.552903333E0,9.891127050E-2,6.170881391E-1,-1.471023355E-2
1.554150333E0,2.474953308E0,-1.177421539E1,8.110134888E-1,1.562885333E0,2.648037970E-1,4.434308708E-1,-1.212363392E-1
1.564132333E0,1.823657684E0,-1.178873520E1,8.696914673E-1,1.572867333E0,3.372662663E-1,3.183738887E-1,-1.379780322E-1
1.574114333E0,9.148974609E-1,-1.158470947E1,5.722599792E-1,1.582849333E0,2.221896797E-1,1.792479306E-1,-9.549355507E-2
1.584096333E0,2.633024597E-1,-1.167272644E1,-5.562432861E-1,1.592831333E0,-1.141324043E-1,-3.224435449E-2,-4.086892307E-2
1.594078333E0,-9.430389404E-2,-1.227387634E1,-2.119592285E0,1.602813333E0,-5.539386272E-1,-2.018838227E-1,-4.316945095E-3
1.604060333E0,-1.210981750E-1,-1.342603043E1,-3.206781464E0,1.612795333E0,-1.002896309E0,-1.367114782E-1,-1.436079107E-2
1.614042333E0,2.574645996E-2,-1.452354813E1,-3.211421814E0,1.622777333E0,-1.417984247E0,1.586243361E-1,-8.845321089E-2
1.624024333E0,2.960842896E-1,-1.488624390E1,-2.544109497E0,1.632759333E0,-1.731427073E0,5.268098116E-1,-2.610271275E-1
1.634006333E0,6.334826660E-1,-1.411624512E1,-1.421743469E0,1.642741333E0,-1.937109232E0,7.331689000E-1,-5.155475736E-1
1.643988333E0,8.358618164E-1,-1.286230270E1,-4.189787292E-1,1.652724333E0,-2.107834101E0,6.429836154E-1,-7.218238115E-1
1.653971333E0,5.276527405E-1,-1.195309341E1,-2.395019531E-2,1.662706333E0,-2.354263067E0,3.841846585E-1,-8.141958714E-1
1.663953333E0,-1.692979431E-1,-1.160970749E1,-7.664062500E-2,1.672688333E0,-2.714076281E0,9.999928623E-2,-8.003926873E-1
1.673935333E0,-7.677534485E-1,-1.134670441E1,-5.616320801E-1,1.682670333E0,-3.091634750E0,-1.764671206E-1,-7.600626349E-1
1.683917333E0,-8.678952026E-1,-1.103714813E1,-8.979826355E-1,1.692652333E0,-3.393845558E0,-4.018539190E-1,-7.270919085E-1
1.693899333E0,-5.700146484E-1,-1.072459808E1,-5.851332092E-1,1.702634333E0,-3.554036617E0,-5.556623340E-1,-6.957283020E-1
1.703881333E0,-4.969665527E-1,-1.058733353E1,-1.004411316E-1,1.712616333E0,-3.544100046E0,-6.481313109E-1,-6.763598919E-1
1.713863333E0,-9.157955933E-1,-1.083821182E1,2.562670898E-1,1.722598333E0,-3.375976801E0,-7.260773182E-1,-6.599874496E-1
1.723845333E0,-1.603914642E0,-1.172706345E1,4.995112610E-1,1.732580333E0,-3.157565117E0,-6.259824038E-1,-6.022871733E-1
1.733827333E0,-2.406395874E0,-1.350910767E1,1.327738953E-1,1.742562333E0,-2.899363041E0,-1.164911538E-1,-4.820003510E-1
1.743809333E0,-3.580254822E0,-1.565519485E1,1.496887207E-3,1.752544333E0,-2.626758575E0,5.614319444E-1,-3.430837691E-1
1.753791333E0,-4.629273376E0,-1.710448105E1,7.682025146E-1,1.762526333E0,-2.379911184E0,1.191240191E0,-2.646538019E-1
1.763773333E0,-4.490212555E0,-1.717423599E1,1.846859436E0,1.772508333E0,-2.193132401E0,1.552630901E0,-2.518272102E-1
1.773755333E0,-3.716920624E0,-1.589484650E1,2.562221832E0,1.782490333E0,-1.994510174E0,1.611712098E0,-3.409698009E-1
1.783737333E0,-2.953957214E0,-1.429527283E1,2.979104919E0,1.792472333E0,-1.750335336E0,1.409232259E0,-4.456184506E-1
1.793719333E0,-2.277214508E0,-1.281769547E1,3.311713257E0,1.802454333E0,-1.618180871E0,8.590582013E-1,-4.718548059E-1
1.803701333E0,-1.800605621E0,-1.168709656E1,2.639760590E0,1.812436333E0,-1.663932443E0,1.133512408E-1,-4.165577292E-1
1.813683333E0,-1.313219147E0,-1.095511871E1,8.839118958E-1,1.822418333E0,-1.763265610E0,-6.681666970E-1,-3.811694980E-1
1.823665333E0,-6.134243774E-1,-1.002151016E1,-4.026626587E-1,1.832400333E0,-1.818618298E0,-1.408487678E0,-4.378881752E-1
1.833647333E0,4.552033997E-1,-9.180259552E0,-9.858499146E-1,1.842383333E0,-1.811244488E0,-1.909922719E0,-5.510289073E-1
1.843630333E0,1.416204987E0,-8.632099457E0,-1.279239807E0,1.852365333E0,-1.841677785E0,-2.075500488E0,-7.291064858E-1
1.853612333E0,2.265987854E0,-8.759783936E0,-2.083068237E0,1.862347333E0,-1.854983091E0,-1.853807211E0,-8.636593223E-1
1.863594333E0,2.444716187E0,-8.776549072E0,-2.698887634E0,1.872329333E0,-1.843839407E0,-1.750859499E0,-8.930504918E-1
1.873576333E0,2.093995514E0,-9.335486755E0,-2.825673981E0,1.882311333E0,-1.810641646E0,-1.719308496E0,-8.804602623E-1
1.883558333E0,1.702110443E0,-9.713600464E0,-2.190544739E0,1.892293333E0,-1.741333961E0,-1.606914043E0,-8.233389258E-1
1.893540333E0,8.217910767E-1,-9.526339874E0,-7.824229431E-1,1.902275333E0,-1.683152437E0,-1.602276683E0,-7.328375578E-1
1.903522333E0,1.139131165E-1,-9.174571381E0,1.143621826E-1,1.912257333E0,-1.641015410E0,-1.678775311E0,-6.739768982E-1
1.913504333E0,-2.143542480E-1,-8.177644501E0,3.731739807E-1,1.922239333E0,-1.559449553E0,-1.764033556E0,-6.794987321E-1
1.923486333E0,-3.923341370E-1,-6.842720490E0,6.105802917E-1,1.932221333E0,-1.405963540E0,-1.739868045E0,-7.034908533E-1
1.933468333E0,-9.291178894E-1,-5.343737640E0,9.786648560E-1,1.942203333E0,-1.187668920E0,-1.734157681E0,-7.086579204E-1
1.943450333E0,-1.384321289E0,-4.531676331E0,1.103056183E0,1.952185333E0,-9.729127288E-1,-1.530964613E0,-6.654244065E-1
1.953432333E0,-1.764979706E0,-3.654201050E0,7.905061340E-1,1.962167333E0,-7.497403622E-1,-1.258554220E0,-6.088113785E-1
1.963414333E0,-2.189197540E0,-2.960393829E0,4.861889648E-1,1.972149333E0,-5.378848314E-1,-1.021918774E0,-5.346519351E-1
1.973396333E0,-2.279609528E0,-2.377505951E0,-2.694396973E-2,1.982131333E0,-3.234826922E-1,-7.307145596E-1,-4.270973802E-1
1.983378333E0,-2.602188721E0,-2.074985046E0,-4.361929321E-1,1.992113333E0,-8.986591548E-2,-4.982019663E-1,-3.055254221E-1
1.993360333E0,-2.873274994E0,-2.062111816E0,-7.659571838E-1,2.002095333E0,1.615565866E-1,-3.506912589E-1,-1.960582584E-1
2.003342333E0,-2.837200012E0,-2.289339294E0,-1.013392639E0,2.012077333E0,4.287272990E-1,-2.736441493E-1,-9.166075289E-2
2.013324333E0,-2.745440826E0,-2.667602692E0,-9.077124023E-1,2.022059333E0,7.140317559E-1,-2.627837658E-1,-2.028377168E-2
2.023306333E0,-2.418969727E0,-2.932252350E0,-7.527845764E-1,2.032042333E0,9.981726408E-1,-2.555492818E-1,4.873444512E-2
2.033289333E0,-2.180515594E0,-3.124153290E0,-7.192543030E-1,2.042024333E0,1.243256330E0,-1.877136976E-1,1.296705604E-1
2.043271333E0,-2.210004272E0,-3.403173065E0,-9.746232605E-1,2.052006333E0,1.438824773E0,-1.189921722E-1,1.992344558E-1
2.053253333E0,-2.100881195E0,-3.719465332E0,-1.615290985E0,2.061988333E0,1.583765268E0,-9.732517600E-2,2.523750961E-1
2.063235333E0,-1.867965546E0,-4.121678925E0,-2.359094238E0,2.071970333E0,1.694833159E0,-5.515774339E-2,2.868617177E-1
2.073217333E0,-1.646725616E0,-4.646038513E0,-3.027604065E0,2.081952333E0,1.767587066E0,-5.916080996E-2,3.184952736E-1
2.083199333E0,-1.293011169E0,-5.449417877E0,-3.716920624E0,2.091934333E0,1.753594279E0,-1.003356799E-1,3.753572106E-1
2.093181333E0,-9.894424438E-1,-6.776258698E0,-4.624633026E0,2.101916333E0,1.604075432E0,-1.347086281E-1,4.449032545E-1
2.103163333E0,-4.402345276E-1,-8.636590118E0,-5.798941040E0,2.111898333E0,1.277239799E0,-1.363286376E-1,5.129483342E-1
2.113145333E0,3.023712158E-1,-1.110735214E1,-7.444469147E0,2.121880333E0,7.645969987E-1,-8.088254184E-2,5.283159018E-1
2.123127333E0,1.057850189E0,-1.412118484E1,-9.592801666E0,2.131862333E0,1.505386531E-1,-1.795800775E-1,4.248550534E-1
2.133109333E0,1.713337097E0,-1.748963013E1,-1.204994202E1,2.141844333E0,-4.814354479E-1,-6.672701836E-1,1.635202169E-1
2.143091333E0,2.079775085E0,-2.074086914E1,-1.384411102E1,2.151826333E0,-1.022296309E0,-1.298270822E0,-2.647147477E-1
2.153073333E0,2.457888794E0,-2.247636017E1,-1.447310303E1,2.161808333E0,-1.269995809E0,-1.587492466E0,-7.164307237E-1
2.163055333E0,2.657723236E0,-2.090313171E1,-1.315165100E1,2.171790333E0,-1.184252739E0,-1.484459043E0,-9.724715352E-1
2.173037333E0,2.265987854E0,-1.674912003E1,-1.016521133E1,2.181772333E0,-9.083689451E-1,-1.109673262E0,-1.057039976E0
2.183019333E0,9.575587463E-1,-1.261471756E1,-7.994275818E0,2.191754333E0,-5.480211973E-1,-6.493990421E-1,-1.015895486E0
2.193001333E0,2.106120300E-1,-9.413025513E0,-6.592590637E0,2.201736333E0,-1.648660302E-1,-1.181290746E-1,-9.085608125E-1
2.202983333E0,-8.637039185E-2,-7.266489258E0,-5.360053711E0,2.211718333E0,2.193804383E-1,3.137901425E-1,-6.463581920E-1
2.212965333E0,-7.653584290E-1,-5.963898010E0,-4.040397949E0,2.221701333E0,6.343806386E-1,6.046780348E-1,-2.311983705E-1
2.222948333E0,-2.261796570E0,-6.824308777E0,-2.722239075E0,2.231683333E0,1.052395701E0,5.151451826E-1,1.968152970E-1
2.232930333E0,-3.267704773E0,-9.182953949E0,-1.162033539E0,2.241665333E0,1.312117457E0,4.971909225E-1,4.694875479E-1
2.242912333E0,-3.018922119E0,-1.198273178E1,1.871109009E-2,2.251647333E0,1.238154888E0,9.497501850E-1,5.353094935E-1
2.252894333E0,-2.417772217E0,-1.482202744E1,6.343807983E-1,2.261629333E0,8.217811584E-1,1.516482353E0,2.879974544E-1
2.262876333E0,-1.111588440E0,-1.661200516E1,8.457412720E-1,2.271611333E0,4.142094254E-1,1.518039823E0,-1.078779846E-1
2.272858333E0,3.851490784E-1,-1.593301712E1,1.565594330E0,2.281593333E0,3.221949339E-1,8.961280584E-1,-3.754602373E-1
2.282840333E0,-6.876699829E-1,-1.297217422E1,2.832559662E0,2.291575333E0,3.526257873E-1,2.129291557E-2,-5.762454867E-1
2.292822333E0,-2.332299957E0,-9.405241699E0,2.046095123E0,2.301557333E0,2.423779219E-1,-6.185739040E-1,-6.749305725E-1
2.302804333E0,-3.198698273E0,-6.447991333E0,-8.598120117E-1,2.311539333E0,2.545918897E-2,-8.772664070E-1,-5.521476865E-1
2.312786333E0,-4.352498932E0,-4.172573090E0,-3.411855011E0,2.321521333E0,-3.604442254E-2,-8.534813523E-1,-2.284240127E-1
2.322768333E0,-5.464237061E0,-2.249522095E0,-4.302353210E0,2.331503333E0,1.307086051E-1,-4.820066094E-1,1.845257431E-1
2.332750333E0,-5.658533020E0,-8.776249695E-1,-3.742966461E0,2.341485333E0,5.226922035E-1,4.543662369E-1,5.664234161E-1
2.342732333E0,-4.884941711E0,-2.939886475E-1,-1.796863403E0,2.351467333E0,1.084385395E0,1.588115454E0,9.336855412E-1
2.352714333E0,-4.054019623E0,-8.210426331E-1,1.012045441E0,2.361449333E0,1.641272664E0,2.387170076E0,1.293556094E0
2.362696333E0,-3.472628632E0,-2.822680206E0,2.876717834E0,2.371431333E0,2.023422480E0,2.744709253E0,1.630446315E0
2.372678333E0,-2.943778381E0,-6.347101135E0,3.661535797E0,2.381413333E0,2.129028797E0,2.667753220E0,1.857661963E0
2.382660333E0,-1.845811615E0,-1.008872040E1,4.171525269E0,2.391395333E0,1.957315564E0,2.099780560E0,1.886374593E0
2.392642333E0,-2.505789185E-1,-1.318862411E1,4.134552155E0,2.401377333E0,1.535074711E0,9.114909768E-1,1.592430353E0
2.402624333E0,1.265019379E0,-1.608195740E1,2.861599274E0,2.411359333E0,1.050422549E0,-6.492657661E-1,1.067274928E0
2.412607333E0,3.241958313E0,-1.781864594E1,1.447489929E-1,2.421342333E0,6.907066703E-1,-1.827916861E0,4.375623763E-1
2.422589333E0,5.714666290E0,-1.741119324E1,-2.624192963E0,2.431324333E0,4.951001108E-1,-1.944605112E0,-1.223278269E-1
2.432571333E0,7.442074127E0,-1.552601349E1,-4.038751373E0,2.441306333E0,5.071489215E-1,-1.388702512E0,-4.943268895E-1
2.442553333E0,6.949897614E0,-1.324101517E1,-3.578757935E0,2.451288333E0,7.235355973E-1,-6.952152848E-1,-7.108477354E-1
2.452535333E0,5.032085724E0,-1.132410141E1,-2.270628204E0,2.461270333E0,9.622836709E-1,-1.680590361E-1,-8.874396682E-1
2.462517333E0,3.141217804E0,-1.013093262E1,-1.450932770E0,2.471252333E0,1.274651051E0,5.465219617E-1,-1.016457796E0
2.472499333E0,7.918533325E-1,-9.417067108E0,-1.272354126E-1,2.481234333E0,1.552153230E0,9.070616364E-1,-1.052348495E0
2.482481333E0,-8.884025574E-1,-8.649014282E0,1.225052490E0,2.491216333E0,1.703233004E0,7.142932415E-1,-9.392817616E-1
2.492463333E0,-2.349813538E0,-7.899822235E0,1.096619568E0,2.501198333E0,1.693199635E0,2.196146101E-1,-7.202807069E-1
2.502445333E0,-3.708238678E0,-7.459438019E0,5.803431702E-1,2.511180333E0,1.575334549E0,-2.029752582E-1,-4.212353826E-1
2.512427333E0,-4.467908936E0,-7.196884003E0,3.876937866E-2,2.521162333E0,1.411301494E0,-4.916864932E-1,-6.866473705E-2
2.522409333E0,-4.776567078E0,-6.945556641E0,-2.224374390E-1,2.531144333E0,1.237136841E0,-6.719414592E-1,2.228741646E-1
2.532391333E0,-4.423601074E0,-6.725214844E0,-4.007167053E-1,2.541126333E0,1.084535599E0,-7.335000634E-1,4.154328108E-1
2.542373333E0,-3.398233337E0,-7.044650574E0,-4.876858521E-1,2.551108333E0,1.010328174E0,-6.076289415E-1,5.272253752E-1
2.552355333E0,-2.274819489E0,-7.606881409E0,-8.232879639E-2,2.561090333E0,1.020536661E0,-4.741354287E-1,5.243868232E-1
2.562337333E0,-1.136436768E0,-8.146359558E0,1.136137390E-1,2.571072333E0,1.125178456E0,-3.989663720E-1,4.219605923E-1
2.572319333E0,2.080673218E-2,-8.684041443E0,6.105802917E-1,2.581054333E0,1.267493606E0,-3.497523069E-1,2.876224518E-1
2.582301333E0,7.203021240E-1,-9.151669006E0,1.043480072E0,2.591037333E0,1.350008488E0,-2.882340848E-1,1.796818525E-1
2.592284333E0,8.750802612E-1,-9.388027496E0,8.777746582E-1,2.601019333E0,1.322103620E0,-1.635870039E-1,1.004234403E-1
2.602266333E0,7.949967957E-1,-9.362281036E0,2.424957275E-1,2.611001333E0,1.207774878E0,-1.809985004E-2,4.225867242E-2
2.612248333E0,6.547384644E-1,-9.249864807E0,-3.564088440E-1,2.620983333E0,1.058362961E0,1.223260760E-1,1.619351655E-2
2.622230333E0,4.064048767E-1,-9.014404449E0,-6.483018494E-1,2.630965333E0,9.291756153E-1,2.749235928E-1,1.948971301E-2
2.632212333E0,1.179547119E-1,-8.873247986E0,-5.429209900E-1,2.640947333E0,8.690880537E-1,4.383440316E-1,3.440425545E-2
2.642194333E0,-1.080752563E-1,-8.728349304E0,-3.397933960E-2,2.650929333E0,8.950730562E-1,6.414944530E-1,5.880493671E-2
2.652176333E0,-2.092648315E-1,-8.695567474E0,7.532336426E-1,2.660911333E0,1.045115709E0,8.823828101E-1,1.181890741E-1
2.662158333E0,-3.710783386E-1,-8.807235260E0,1.651964722E0,2.670893333E0,1.253401875E0,9.854498506E-1,1.400714666E-1
2.672140333E0,-5.586383057E-1,-9.082512817E0,2.267634430E0,2.680875333E0,1.421204448E0,8.364442587E-1,1.841483563E-1
2.682122333E0,-7.893086243E-1,-9.157955933E0,2.097288666E0,2.690857333E0,1.481619835E0,4.639042318E-1,1.956585348E-1
2.692104333E0,-9.512718201E-1,-9.269923096E0,1.015188904E0,2.700839333E0,1.528649330E0,4.807628319E-2,2.488388270E-1
2.702086333E0,-1.109043732E0,-9.179960175E0,1.221459961E-1,2.710821333E0,1.563418269E0,-2.879443169E-1,2.693150640E-1
2.712068333E0,-1.330433350E0,-9.214987335E0,-5.188211060E-1,2.720803333E0,1.581165910E0,-4.097757339E-1,3.041934967E-1
2.722050333E0,-1.286275177E0,-9.513915710E0,-1.217268677E0,2.730785333E0,1.521386981E0,-2.942022681E-1,3.616780937E-1
2.732032333E0,-1.388063507E0,-1.004426285E1,-1.840123444E0,2.740767333E0,1.353372931E0,-1.786524989E-2,4.070467949E-1
2.742015333E0,-1.039438477E0,-1.082009949E1,-2.453697510E0,2.750750333E0,1.098877788E0,2.917386591E-1,4.647641480E-1
2.751997333E0,-6.409671021E-1,-1.134894974E1,-2.849923553E0,2.760732333E0,7.952659726E-1,5.000864863E-1,4.545552731E-1
2.761979333E0,-2.110610962E-2,-1.180639847E1,-3.127745819E0,2.770714333E0,5.115804672E-1,6.185109019E-1,4.483479559E-1
2.771961333E0,6.623725891E-1,-1.184397034E1,-3.043620758E0,2.780696333E0,2.498424798E-1,7.098735571E-1,4.136763513E-1
2.781943333E0,1.240620117E0,-1.173978699E1,-2.660417633E0,2.790678333E0,2.692418359E-2,7.877156138E-1,3.867405951E-1
2.791925333E0,1.837279358E0,-1.151854706E1,-1.866318970E0,2.800660333E0,-1.434347332E-1,7.951018810E-1,3.188897073E-1
2.801907333E0,2.346370697E0,-1.149474655E1,-8.134085083E-1,2.810642333E0,-1.955165863E-1,6.854733825E-1,2.377474606E-1
2.811889333E0,2.619103546E0,-1.152737869E1,4.511618042E-1,2.820624333E0,-1.288653463E-1,4.180475473E-1,1.263432950E-1
2.821871333E0,2.627037048E0,-1.177361664E1,1.544637909E0,2.830606333E0,6.179142371E-2,1.426039785E-1,4.212641716E-2
2.831853333E0,2.434836731E0,-1.200353851E1,2.146236877E0,2.840588333E0,2.474305034E-1,-1.202894524E-1,-6.049666554E-2
2.841835333E0,1.819316711E0,-1.204649918E1,1.955533447E0,2.850570333E0,3.277671635E-1,-2.967896461E-1,-9.997349977E-2
2.851817333E0,1.103056183E0,-1.204709793E1,6.686595154E-1,2.860552333E0,2.358756512E-1,-3.125547767E-1,-2.402056381E-2
2.861799333E0,-1.317260742E-1,-1.183214493E1,-1.035995636E0,2.870534333E0,-6.631511450E-2,-2.744175196E-1,5.440420285E-2
2.871781333E0,-7.628137207E-1,-1.236129456E1,-3.013683014E0,2.880516333E0,-4.180624485E-1,-1.595562547E-1,1.519602984E-1
2.881763333E0,-7.321275330E-1,-1.323742264E1,-4.010160828E0,2.890499333E0,-7.629130483E-1,-2.991278470E-2,1.334982067E-1
2.891746333E0,-1.041833496E-1,-1.430470322E1,-3.827241211E0,2.900481333E0,-1.023638248E0,9.252025187E-2,2.874319069E-2
2.901728333E0,9.267228699E-1,-1.472517883E1,-3.146756287E0,2.910463333E0,-1.238927722E0,2.054017931E-1,-1.255832613E-1
2.911710333E0,1.647923126E0,-1.410756317E1,-2.292782135E0,2.920445333E0,-1.434733868E0,2.619422376E-1,-2.831608951E-1
2.921692333E0,2.095791779E0,-1.322035812E1,-1.747765503E0,2.930427333E0,-1.611424208E0,1.956566870E-1,-4.106943309E-1
2.931674333E0,2.106868744E0,-1.238225098E1,-1.399589539E0,2.940409333E0,-1.849862576E0,6.219133735E-2,-5.013355017E-1
2.941656333E0,1.773362274E0,-1.176852722E1,-1.435664520E0,2.950391333E0,-2.210202456E0,-5.324205011E-2,-5.504780412E-1
2.951638333E0,1.438059540E0,-1.150282974E1,-1.977088623E0,2.960373333E0,-2.609095573E0,-1.672258377E-1,-5.781485438E-1
2.961620333E0,1.346300354E0,-1.136047577E1,-2.157014465E0,2.970355333E0,-2.955704451E0,-2.781973481E-1,-5.956066251E-1
2.971602333E0,1.147663422E0,-1.113968491E1,-1.611698456E0,2.980337333E0,-3.249429464E0,-4.472151101E-1,-5.540891886E-1
2.981584333E0,4.953199768E-1,-1.095362183E1,-7.339237976E-1,2.990319333E0,-3.449525356E0,-7.194657922E-1,-4.649401307E-1
2.991566333E0,-6.372248840E-1,-1.069481003E1,2.359094238E-1,3.000301333E0,-3.548887968E0,-1.016740799E0,-4.094997048E-1
3.001548333E0,-1.758094025E0,-1.072639435E1,9.334588623E-1,3.010283333E0,-3.541798592E0,-1.271271348E0,-4.067428112E-1
3.011530333E0,-2.902015228E0,-1.096814163E1,1.360221405E0,3.020265333E0,-3.468434095E0,-1.442410946E0,-3.412299454E-1
3.021512333E0,-4.415817261E0,-1.163814835E1,1.193168793E0,3.030248333E0,-3.333865166E0,-1.393820763E0,-1.579687893E-1
3.031495333E0,-6.305787048E0,-1.314311874E1,6.679110718E-1,3.040230333E0,-3.192741871E0,-1.026075363E0,8.628912270E-2
3.041477333E0,-7.836653595E0,-1.503997421E1,2.682421875E-1,3.050212333E0,-3.021934271E0,-3.212884068E-1,2.728848457E-1
3.051459333E0,-8.361911316E0,-1.636516846E1,3.760180664E-1,3.060194333E0,-2.785232067E0,4.704834819E-1,3.192925453E-1
3.061441333E0,-7.149282990E0,-1.616787872E1,8.500822449E-1,3.070176333E0,-2.499378204E0,1.129272580E0,2.295080572E-1
3.071423333E0,-4.636159058E0,-1.443358521E1,1.162332916E0,3.080158333E0,-2.186895609E0,1.592765212E0,6.066532806E-2
3.081405333E0,-2.435884552E0,-1.266351608E1,1.158890076E0,3.090140333E0,-1.906196594E0,1.793173432E0,-1.065263301E-1
3.091387333E0,-9.771679688E-1,-1.154683823E1,8.330177307E-1,3.100122333E0,-1.730539083E0,1.639200568E0,-2.415392548E-1
3.101369333E0,-2.715353394E-1,-1.068852310E1,1.883084106E-1,3.110104333E0,-1.668383837E0,1.108350754E0,-3.335427046E-1
3.111351333E0,2.074685669E-1,-1.006656647E1,-5.174739075E-1,3.120086333E0,-1.646958113E0,3.838788867E-1,-4.037338793E-1
3.121333333E0,6.258485413E-1,-9.717492371E0,-7.729925537E-1,3.130068333E0,-1.671160460E0,-2.376184762E-1,-5.743377805E-1
3.131315333E0,1.305884399E0,-9.547595673E0,-7.694000244E-1,3.140050333E0,-1.695444107E0,-4.402327538E-1,-8.231621981E-1
3.141297333E0,2.550995178E0,-9.553433533E0,-1.006806335E0,3.150032333E0,-1.720890641E0,-4.863914847E-1,-1.047237396E0
3.151279333E0,2.863096161E0,-9.333241425E0,-1.563498688E0,3.160014333E0,-1.722839475E0,-7.305384874E-1,-1.195787072E0
3.161261333E0,3.009042664E0,-9.341923370E0,-1.973645782E0,3.169996333E0,-1.654531598E0,-1.065374017E0,-1.223076224E0
3.171244333E0,3.039279785E0,-9.397308197E0,-1.750759277E0,3.179979333E0,-1.552548170E0,-1.412773252E0,-1.246721148E0
3.181226333E0,2.719544678E0,-9.051976318E0,-8.623567200E-1,3.189961333E0,-1.458498359E0,-1.735783815E0,-1.249319792E0
3.191208333E0,2.455044708E0,-8.251890106E0,-3.814068604E-1,3.199943333E0,-1.381160498E0,-1.992387414E0,-1.178421617E0
3.201190333E0,1.492995300E0,-7.485334167E0,1.312770081E-1,3.209925333E0,-1.301057220E0,-2.143581390E0,-1.111784577E0
3.211172333E0,8.232879639E-1,-6.569239197E0,4.379891968E-1,3.219907333E0,-1.182058454E0,-2.102412701E0,-1.084478140E0
3.221154333E0,6.301895142E-2,-5.176834717E0,8.053253174E-1,3.229889333E0,-9.964566231E-1,-1.983070374E0,-1.050962329E0
3.231136333E0,-6.131250000E-1,-4.004472656E0,1.058748322E0,3.239871333E0,-7.710035443E-1,-1.907619238E0,-9.583389163E-1
3.241118333E0,-1.580413513E0,-3.393892365E0,1.016985168E0,3.249853333E0,-5.482453108E-1,-1.777254581E0,-8.670918345E-1
3.251100333E0,-2.183958435E0,-2.776875458E0,6.948550415E-1,3.259835333E0,-3.196709156E-1,-1.548694491E0,-7.865123153E-1
3.261082333E0,-2.688409424E0,-2.315385132E0,2.893482971E-1,3.269817333E0,-9.094879031E-2,-1.288467526E0,-7.236904502E-1
3.271064667E0,-2.901416473E0,-2.073488159E0,-2.270777893E-1,3.279799667E0,1.619869918E-1,-8.510073423E-1,-5.989451408E-1
3.281046667E0,-3.445834351E0,-2.145039368E0,-6.372248840E-1,3.289781667E0,4.049618542E-1,-4.857657254E-1,-4.448288083E-1
3.291028667E0,-3.653302917E0,-2.389930115E0,-1.201401672E0,3.299763667E0,6.312023997E-1,-2.174701244E-1,-2.859563529E-1
3.301010667E0,-3.408112793E0,-2.508932648E0,-1.831890564E0,3.309746667E0,8.563598990E-1,1.978862332E-3,-1.484786570E-1
3.310993667E0,-3.180286560E0,-2.754122772E0,-2.060764618E0,3.319728667E0,1.100691438E0,1.591002047E-1,-6.514611095E-2
3.320975667E0,-2.928510132E0,-3.025358734E0,-1.852547607E0,3.329710667E0,1.361481190E0,2.207731605E-1,-8.752434514E-4
3.330957667E0,-2.705623627E0,-3.187621307E0,-1.478176117E0,3.339692667E0,1.613959908E0,2.555420697E-1,8.481670171E-2
3.340939667E0,-2.812201996E0,-3.438050537E0,-1.257834320E0,3.349674667E0,1.847131371E0,2.751882076E-1,1.882418841E-1
3.350921667E0,-2.877765656E0,-3.791914673E0,-1.464255066E0,3.359656667E0,2.055847883E0,3.833014071E-1,2.950765789E-1
3.360903667E0,-2.813549194E0,-4.305796051E0,-1.917961578E0,3.369638667E0,2.240002632E0,4.562155604E-1,3.794085085E-1
3.370885667E0,-2.499801636E0,-5.001399536E0,-2.380649414E0,3.379620667E0,2.388602018E0,4.918129146E-1,4.465108514E-1
3.380867667E0,-2.119442596E0,-5.927972717E0,-2.859054565E0,3.389602667E0,2.458575487E0,3.970722854E-1,5.380804539E-1
3.390849667E0,-1.812131653E0,-7.321425018E0,-3.742966461E0,3.399584667E0,2.373764038E0,2.373463362E-1,6.397960782E-1
3.400831667E0,-1.588347015E0,-9.407487030E0,-5.306165771E0,3.409566667E0,2.079936028E0,8.042649925E-2,7.462133169E-1
3.410813667E0,-7.625143433E-1,-1.217148926E1,-7.525600433E0,3.419548667E0,1.496269822E0,1.125969216E-1,8.443056941E-1
3.420795667E0,1.899549866E-1,-1.556178909E1,-1.032672546E1,3.429530667E0,5.586527586E-1,3.132490814E-1,8.235263824E-1
3.430777667E0,1.085542603E0,-1.933738770E1,-1.440768906E1,3.439512667E0,-5.681257248E-1,6.752701104E-2,6.193786860E-1
3.440759667E0,2.101330261E0,-2.312645828E1,-1.850436996E1,3.449495667E0,-1.648183465E0,-1.059278488E0,1.125147268E-1
3.450742667E0,3.578907623E0,-2.505789185E1,-2.034943314E1,3.459477667E0,-2.093187332E0,-1.887388945E0,-5.453325510E-1
3.460724667E0,6.069727936E0,-2.277424072E1,-1.809182785E1,3.469459667E0,-1.714385748E0,-1.558453918E0,-9.787377715E-1
3.470706667E0,6.211034088E0,-1.767958511E1,-1.057101746E1,3.479441667E0,-9.928848147E-1,-6.241467595E-1,-1.170707107E0
3.480688667E0,3.928879852E0,-1.239856705E1,-5.056335297E0,3.489423667E0,-2.611975968E-1,7.531309873E-2,-1.254435539E0
3.490670667E0,2.295626221E0,-7.878865814E0,-3.367996216E0,3.499405667E0,3.256087005E-1,2.654398382E-1,-1.158628345E0
3.500652667E0,1.118474121E0,-5.194348297E0,-3.392844543E0,3.509387667E0,7.669520378E-1,3.732869625E-1,-8.001658916E-1
3.510634667E0,-6.740483093E-1,-5.054389343E0,-3.305875397E0,3.519369667E0,1.145728469E0,6.104715466E-1,-4.358514547E-1
3.520616667E0,-2.129771118E0,-5.791905670E0,-2.301613770E0,3.529351667E0,1.434641004E0,6.338035464E-1,-1.371294707E-1
3.530598667E0,-2.951711884E0,-6.350394287E0,-4.858895874E-1,3.539333667E0,1.603829026E0,7.954488993E-1,1.087997183E-1
3.540580667E0,-3.470233612E0,-7.703280945E0,1.213376770E0,3.549315667E0,1.728789091E0,1.238262534E0,3.313558400E-1
3.550562667E0,-3.857328644E0,-1.009575577E1,3.121009827E0,3.559297667E0,1.823583126E0,1.710764527E0,4.911062419E-1
3.560544667E0,-4.245471497E0,-1.314581314E1,5.627996521E0,3.569279667E0,1.651834488E0,1.732899189E0,4.966762364E-1
3.570526667E0,-4.681365051E0,-1.547766403E1,5.945336609E0,3.579261667E0,1.197327375E0,1.021587253E0,1.936600208E-1
3.580508667E0,-4.365671539E0,-1.576596451E1,2.879262543E0,3.589244667E0,3.834086359E-1,-3.255272210E-1,-1.382020712E-1
3.590491667E0,-3.398233337E0,-1.441517349E1,-2.474653931E0,3.599226667E0,-5.227105021E-1,-1.129461169E0,-2.661722898E-1
3.600473667E0,-2.630180511E0,-1.229812592E1,-7.407645721E0,3.609208667E0,-8.681919575E-1,-8.602150083E-1,-1.675969809E-1
3.610455667E0,-2.373763733E0,-9.770781555E0,-6.041137390E0,3.619190667E0,-7.006149292E-1,-3.889014125E-1,4.565011337E-2
3.620437667E0,-2.539020081E0,-7.246880035E0,-4.007167053E0,3.629172667E0,-2.333462834E-1,2.600915134E-1,3.296557367E-1
3.630419667E0,-2.853815460E0,-4.750221863E0,-2.833457794E0,3.639154667E0,3.735119104E-1,1.233924985E0,5.473832488E-1
3.640401667E0,-3.458707581E0,-2.660267944E0,-4.695735168E-1,3.649136667E0,1.054776430E0,2.085185051E0,7.475634813E-1
3.650383667E0,-3.480412445E0,-1.695823517E0,2.361489258E0,3.659118667E0,1.608534336E0,2.457621813E0,1.004927874E0
3.660365667E0,-4.053121490E0,-2.357148285E0,3.827540588E0,3.669100667E0,1.984777451E0,2.525773764E0,1.223141074E0
3.670347667E0,-4.136797485E0,-3.974834290E0,4.413721619E0,3.679082667E0,2.114870787E0,2.278789759E0,1.406206608E0
3.680329667E0,-3.411855011E0,-6.324647827E0,4.915478210E0,3.689064667E0,1.978242278E0,1.776010513E0,1.512443542E0
3.690311667E0,-2.246827698E0,-9.222322083E0,4.974605255E0,3.699046667E0,1.680512786E0,9.225349426E-1,1.400263309E0
3.700293667E0,-7.397616577E-1,-1.228210922E1,5.002597046E0,3.709028667E0,1.365309119E0,-4.078128189E-2,1.117373109E0
3.710275667E0,1.510209503E0,-1.470961121E1,4.710254974E0,3.719010667E0,1.173442125E0,-6.401379108E-1,7.319541574E-1
3.720257667E0,3.879632263E0,-1.572494980E1,3.753744049E0,3.728993667E0,1.216962457E0,-8.412712812E-1,3.054374456E-1
3.730240667E0,5.959257660E0,-1.594918350E1,1.955533447E0,3.738975667E0,1.454886675E0,-6.540457606E-1,-1.550983489E-1
3.740222667E0,7.385192413E0,-1.540102341E1,-4.808001709E-1,3.748957667E0,1.663345337E0,-1.815413237E-1,-6.020100713E-1
3.750204667E0,7.051087189E0,-1.373828110E1,-2.815944214E0,3.758939667E0,1.697211623E0,4.181593359E-1,-9.285308123E-1
3.760186667E0,4.391567688E0,-1.178978302E1,-4.234843597E0,3.768921667E0,1.596474409E0,1.006370544E0,-1.082762003E0
3.770168667E0,1.235081635E0,-1.040052200E1,-4.267475739E0,3.778903667E0,1.472045541E0,1.275607824E0,-1.069266438E0
3.780150667E0,-9.834548950E-1,-9.283844147E0,-3.194806366E0,3.788885667E0,1.398033381E0,1.206483841E0,-9.254301190E-1
3.790132667E0,-2.521506500E0,-8.178392944E0,-1.621577911E0,3.798867667E0,1.376001477E0,8.739662170E-1,-7.060194016E-1
3.800114667E0,-3.524570618E0,-7.075336761E0,-2.637515259E-1,3.808849667E0,1.319166183E0,4.459807873E-1,-4.291401207E-1
3.810096667E0,-4.309388580E0,-6.169869690E0,4.947212219E-1,3.818831667E0,1.199471593E0,6.745375693E-2,-1.400021762E-1
3.820078667E0,-4.483177185E0,-5.683381348E0,5.474116516E-1,3.828813667E0,1.071666241E0,-1.163373813E-1,1.539964229E-1
3.830060667E0,-4.204307098E0,-5.842201080E0,6.273454285E-1,3.838795667E0,9.884323478E-1,-1.186117530E-1,4.109622538E-1
3.840042667E0,-3.774999847E0,-6.523584137E0,8.641529846E-1,3.848777667E0,9.506101608E-1,2.253019251E-2,5.515209436E-1
3.850024667E0,-2.884950714E0,-7.592361603E0,1.030157776E0,3.858759667E0,9.698363543E-1,2.870213389E-1,5.780089498E-1
3.860006667E0,-1.639390869E0,-8.557554474E0,9.090596008E-1,3.868742667E0,1.042950034E0,6.328841448E-1,5.308694243E-1
3.869989667E0,-4.641847229E-1,-9.142687683E0,7.385641479E-1,3.878724667E0,1.105810285E0,9.800468087E-1,4.818394780E-1
3.879971667E0,4.324507141E-1,-9.407487030E0,6.063890076E-1,3.888706667E0,1.092433214E0,1.245788455E0,4.040562510E-1
3.889953667E0,9.906399536E-1,-9.500743103E0,2.977308655E-1,3.898688667E0,1.034169436E0,1.394250393E0,3.264100552E-1
3.899935667E0,1.422042847E0,-9.253906403E0,8.861572266E-2,3.908670667E0,9.595404863E-1,1.402582407E0,2.561819851E-1
3.909917667E0,1.599723358E0,-9.093739471E0,-1.541793823E-2,3.918652667E0,9.261896014E-1,1.282011032E0,2.182818651E-1
3.919899667E0,1.346749420E0,-8.909772034E0,3.995191956E-1,3.928634667E0,9.660353065E-1,1.089027643E0,2.279523313E-1
3.929881667E0,1.082099762E0,-8.895850983E0,8.611592102E-1,3.938616667E0,1.054632187E0,8.310434818E-1,2.516073883E-1
3.939863667E0,4.653822327E-1,-8.784931641E0,1.294358368E0,3.948598667E0,1.211608529E0,4.878283441E-1,3.152516186E-1
3.949845667E0,-3.457809448E-2,-8.919052734E0,1.196312256E0,3.958580667E0,1.375336647E0,1.335340589E-1,3.837860525E-1
3.959827667E0,-7.872129822E-1,-9.120533752E0,7.800279236E-1,3.968562667E0,1.537766933E0,-1.139084771E-1,4.223861694E-1
3.969809667E0,-8.822653198E-1,-9.594897308E0,9.011260986E-2,3.978544667E0,1.661682487E0,-1.620792449E-1,4.632677436E-1
3.979791667E0,-8.111631775E-1,-1.009545639E1,-4.716691589E-1,3.988526667E0,1.674475312E0,1.387607120E-2,5.272770524E-1
3.989773667E0,-7.072792053E-1,-1.064556244E1,-1.026864624E0,3.998508667E0,1.530721903E0,3.555648327E-1,6.334733963E-1
3.999755667E0,-4.105961609E-1,-1.084614532E1,-1.829345856E0,4.008491667E0,1.244304776E0,6.988244653E-1,7.187259793E-1
4.009738667E0,2.124082947E-1,-1.067385361E1,-2.510130157E0,4.018473667E0,9.251363873E-1,8.614644408E-1,7.806072235E-1
4.019720667E0,1.110540619E0,-1.029633865E1,-2.504741364E0,4.028455667E0,6.528068185E-1,7.435516715E-1,7.295554876E-1
4.029702667E0,1.871109009E0,-1.062685135E1,-2.104324036E0,4.038437667E0,4.833959341E-1,3.781302273E-1,5.682036281E-1
4.039684667E0,2.347418518E0,-1.161135406E1,-1.462309113E0,4.048419667E0,3.874366581E-1,2.597619034E-2,3.526135683E-1
4.049666667E0,2.565814362E0,-1.267668869E1,-7.759863281E-1,4.058401667E0,3.105926514E-1,-8.467673510E-2,1.581720561E-1
4.059648667E0,2.530637512E0,-1.311662384E1,-2.896476746E-1,4.068383667E0,2.227759659E-1,7.055865973E-2,5.682573095E-2
4.069630667E0,2.010020142E0,-1.265258881E1,-1.194515991E-1,4.078365667E0,1.364918202E-1,3.150574267E-1,2.881477028E-2
4.079612667E0,1.362616425E0,-1.191656937E1,-2.386038208E-1,4.088347667E0,7.065528631E-2,4.271216691E-1,2.891357616E-2
4.089594667E0,6.686595154E-1,-1.125464584E1,-3.135978699E-1,4.098329667E0,2.328220196E-2,3.304358423E-1,1.917474344E-2
4.099576667E0,2.486329651E-1,-1.114896561E1,-6.963519287E-1,4.108311667E0,-8.763179183E-2,1.704294086E-1,7.325501740E-2
4.109558667E0,-4.849914551E-1,-1.096365097E1,-9.647438049E-1,4.118293667E0,-2.784909308E-1,4.734651372E-2,1.683822274E-1
4.119540667E0,-8.738827515E-1,-1.129595993E1,-1.662293243E0,4.128275667E0,-5.801464319E-1,-2.074146084E-2,1.992400140E-1
4.129522667E0,-7.238946533E-1,-1.187585403E1,-2.269430695E0,4.138257667E0,-8.910167217E-1,-2.740635350E-2,1.678031981E-1
4.139504667E0,-1.160087585E-1,-1.257879227E1,-2.479893036E0,4.148240667E0,-1.166081786E0,-5.715040118E-2,1.546826679E-2
4.149487667E0,6.562353516E-1,-1.352048401E1,-2.416425018E0,4.158222667E0,-1.354187489E0,-7.406744175E-3,-2.317175716E-1
4.159469667E0,1.160087585E0,-1.395652725E1,-1.790875854E0,4.168204667E0,-1.465114713E0,1.982406825E-1,-4.803729057E-1
4.169451667E0,1.136586456E0,-1.383662659E1,-9.532177734E-1,4.178186667E0,-1.565082550E0,3.812721074E-1,-6.452489495E-1
4.179433667E0,4.923262024E-1,-1.334729416E1,-4.188290405E-1,4.188168667E0,-1.832476377E0,3.835461736E-1,-7.269142270E-1
4.189415667E0,-9.086105347E-2,-1.295316376E1,-7.216493225E-1,4.198150667E0,-2.294189692E0,3.196994662E-1,-7.306590676E-1
4.199397667E0,-2.163002014E-1,-1.264944534E1,-1.622026978E0,4.208132667E0,-2.793319702E0,2.446217537E-1,-7.040357590E-1
4.209379667E0,-1.460961914E-1,-1.225726089E1,-2.010020142E0,4.218114667E0,-3.160217285E0,1.726306826E-1,-6.716824770E-1
4.219361667E0,5.298980713E-2,-1.146301254E1,-1.192719727E0,4.228096667E0,-3.378534079E0,9.991981089E-3,-6.661326885E-1
4.229343667E0,2.260299683E-2,-1.069945038E1,5.792953491E-2,4.238078667E0,-3.428049564E0,-3.293500245E-1,-6.677183509E-1
4.239325667E0,-2.953358459E-1,-1.037717056E1,8.858578491E-1,4.248060667E0,-3.322886705E0,-8.034968376E-1,-6.930415630E-1
4.249307667E0,-1.314566345E0,-1.035322037E1,1.524579620E0,4.258042667E0,-3.205363512E0,-1.203622580E0,-7.364628911E-1
4.259289667E0,-2.437531128E0,-1.095077774E1,1.409768372E0,4.268024667E0,-3.111539364E0,-1.295929790E0,-6.717664599E-1
4.269271583E0,-4.162693634E0,-1.275243118E1,3.559597778E-1,4.278006583E0,-2.951675653E0,-9.046668410E-1,-4.423516989E-1
4.279253583E0,-6.240223389E0,-1.502096375E1,-1.889071655E-1,4.287989583E0,-2.703875065E0,-4.457555711E-2,-1.686194688E-1
4.289236583E0,-7.624095612E0,-1.681139053E1,2.950364685E-1,4.297971583E0,-2.454708099E0,9.037864804E-1,-4.058740661E-2
4.299218583E0,-7.238347778E0,-1.744397507E1,8.963360596E-1,4.307953583E0,-2.263314009E0,1.583508015E0,-7.197488844E-2
4.309200583E0,-5.370980988E0,-1.632565063E1,1.002615051E0,4.317935583E0,-2.077736378E0,1.858243465E0,-1.946516037E-1
4.319182583E0,-3.329975281E0,-1.392898453E1,1.195114746E0,4.327917583E0,-1.871330976E0,1.861636639E0,-3.022750020E-1
4.329164583E0,-1.624871063E0,-1.200787949E1,1.645977173E0,4.337899583E0,-1.735173941E0,1.602458715E0,-3.020384610E-1
4.339146583E0,-1.008003845E0,-1.079165863E1,1.490450592E0,4.347881583E0,-1.740586042E0,8.784238696E-1,-2.413527519E-1
4.349128583E0,-9.113049316E-1,-1.015143997E1,3.872447205E-1,4.357863583E0,-1.826888084E0,-1.408062503E-2,-1.588889062E-1
4.359110583E0,-6.480024719E-1,-9.768685913E0,-4.138893127E-1,4.367845583E0,-1.903237224E0,-7.381882071E-1,-1.235697940E-1
4.369092583E0,-1.368154907E-1,-9.543853455E0,-5.908213806E-1,4.377827583E0,-2.014450312E0,-1.350267291E0,-1.487214267E-1
4.379074583E0,2.926414490E-1,-9.331894226E0,-9.464817810E-1,4.387809583E0,-2.086477518E0,-1.643329859E0,-3.402876556E-1
4.389056583E0,1.320553894E0,-8.926986237E0,-1.593286743E0,4.397791583E0,-2.048871040E0,-1.595918894E0,-5.656772256E-1
4.399038583E0,2.255060577E0,-8.755442963E0,-1.471889191E0,4.407773583E0,-1.955878139E0,-1.444834828E0,-6.869434714E-1
4.409020583E0,1.978884888E0,-8.930279388E0,-1.350341949E0,4.417755583E0,-1.858048201E0,-1.385524750E0,-7.504475713E-1
4.419002583E0,1.473386078E0,-8.888516235E0,-1.475332031E0,4.427737583E0,-1.711125255E0,-1.277734876E0,-7.501431704E-1
4.428984583E0,8.647517395E-1,-8.679999847E0,-1.099463654E0,4.437720583E0,-1.528188705E0,-1.242601871E0,-7.363044620E-1
4.438967583E0,1.936972046E-1,-8.302784271E0,-3.710783386E-1,4.447702583E0,-1.358676672E0,-1.280476332E0,-7.561684251E-1
4.448949583E0,-1.785786438E-1,-7.577841797E0,1.160087585E-1,4.457684583E0,-1.191858649E0,-1.344601274E0,-7.661789656E-1
4.458931583E0,-5.453160095E-1,-6.673871613E0,5.453160095E-1,4.467666583E0,-1.026192188E0,-1.357510924E0,-7.421107888E-1
4.468913583E0,-1.108744354E0,-5.750142517E0,9.425898743E-1,4.477648583E0,-8.866507411E-1,-1.423166156E0,-7.091640830E-1
4.478895583E0,-1.386716309E0,-4.857249298E0,1.156195679E0,4.487630583E0,-7.623583078E-1,-1.532908082E0,-6.879671812E-1
4.488877583E0,-1.440604248E0,-3.953129425E0,1.028211823E0,4.497612583E0,-6.346822381E-1,-1.534917355E0,-6.512674689E-1
4.498859583E0,-1.615440674E0,-3.070415039E0,8.984317017E-1,4.507594583E0,-4.829393327E-1,-1.387642980E0,-5.717681050E-1
4.508841583E0,-1.889221344E0,-2.541564789E0,6.533912659E-1,4.517576583E0,-2.848763764E-1,-1.115260601E0,-4.761211574E-1
4.518823583E0,-2.185754700E0,-2.172282715E0,2.401007080E-1,4.527558583E0,-2.089239657E-2,-7.366182208E-1,-3.673132062E-1
4.528805583E0,-2.503992920E0,-2.158960419E0,-9.265731812E-2,4.537540583E0,2.710959613E-1,-4.006668925E-1,-2.672106922E-1
4.538787583E0,-2.618055725E0,-2.477647705E0,-4.123924255E-1,4.547522583E0,5.719468594E-1,-1.408036202E-1,-1.816316098E-1
4.548769583E0,-2.479294281E0,-2.818039856E0,-8.226892090E-1,4.557504583E0,8.709867597E-1,8.153272793E-4,-1.064928472E-1
4.558751583E0,-2.370620270E0,-3.125051422E0,-1.009500732E0,4.567486583E0,1.171000481E0,5.400291458E-2,-5.333215743E-2
4.568733583E0,-2.195933533E0,-3.275039520E0,-9.321116638E-1,4.577468583E0,1.487630367E0,2.735492773E-2,7.131807506E-3
4.578716583E0,-2.155667267E0,-3.325634308E0,-7.679031372E-1,4.587451583E0,1.800503612E0,-2.176148631E-2,7.680089772E-2
4.588698583E0,-2.317630463E0,-3.465593262E0,-7.220983887E-1,4.597433583E0,2.069312334E0,-1.229673028E-1,1.421088427E-1
4.598680583E0,-2.351011047E0,-3.732637939E0,-1.149459686E0,4.607415583E0,2.297234058E0,-2.667412460E-1,1.909048706E-1
4.608662583E0,-2.158511353E0,-4.137246552E0,-1.882036285E0,4.617397583E0,2.481020927E0,-4.356508553E-1,2.295420319E-1
4.618644583E0,-1.861528931E0,-4.804708557E0,-2.784958649E0,4.627379583E0,2.568973541E0,-5.726686120E-1,2.985751629E-1
4.628626583E0,-1.713187408E0,-5.926775208E0,-3.988006897E0,4.637361583E0,2.520767212E0,-6.241463423E-1,3.999930024E-1
4.638608583E0,-1.735041962E0,-7.775430908E0,-5.531596985E0,4.647343583E0,2.355180740E0,-5.450283885E-1,4.811557531E-1
4.648590583E0,-1.293011169E0,-1.033555710E1,-6.583160248E0,4.657325583E0,1.998872995E0,-3.102134466E-1,5.480652452E-1
4.658572583E0,-6.090834045E-1,-1.377555359E1,-7.235952759E0,4.667307583E0,1.130649447E0,1.769894809E-1,5.209984779E-1
4.668554583E0,4.752616882E-1,-1.800306244E1,-1.021969803E1,4.677289583E0,-1.874667555E-1,8.353814483E-1,3.524764478E-1
4.678536583E0,1.671723633E0,-2.302826248E1,-1.559906158E1,4.687271583E0,-1.628591418E0,6.521085501E-1,-9.102591127E-2
4.688518583E0,2.342179413E0,-2.724484406E1,-1.975037888E1,4.697253583E0,-2.475037098E0,-7.644796968E-1,-6.462628841E-1
4.698500583E0,2.818189545E0,-2.739872406E1,-2.140937897E1,4.707235583E0,-2.195457220E0,-1.616569519E0,-1.092485905E0
4.708482583E0,2.377056885E0,-2.182985458E1,-1.505224869E1,4.717217583E0,-1.468095660E0,-1.398950934E0,-1.287711620E0
4.718464583E0,7.322772217E-1,-1.465617233E1,-8.838520203E0,4.727200583E0,-6.973696947E-1,-7.916319966E-1,-1.309574842E0
4.728447583E0,3.248245239E-2,-9.391769714E0,-5.913303223E0,4.737182583E0,-7.782758027E-2,-2.687399387E-1,-1.188663840E0
4.738429583E0,2.622546387E-1,-5.914351044E0,-4.775369568E0,4.747164583E0,2.788197696E-1,1.435592324E-1,-7.305175662E-1
4.748411583E0,-5.974076843E-1,-4.538412323E0,-3.750450897E0,4.757146583E0,4.683062732E-1,5.832124352E-1,4.104328901E-2
4.758393583E0,-2.722089386E0,-5.891598358E0,-2.061063995E0,4.767128583E0,5.482767820E-1,7.777403593E-1,7.348542809E-1
4.768375583E0,-3.921395416E0,-8.220605164E0,-6.301895142E-2,4.777110583E0,5.285133123E-1,1.414756536E0,1.034372330E0
4.778357583E0,-3.683540039E0,-1.122680374E1,2.379451904E0,4.787092583E0,6.641843319E-1,2.086564779E0,7.627304196E-1
4.788339583E0,-2.705923004E0,-1.407029068E1,6.749464417E0,4.797074583E0,1.001554132E0,1.747481585E0,2.055801451E-1
4.798321583E0,-1.352437592E0,-1.443493240E1,1.029050079E1,4.807056583E0,1.154944539E0,9.107173681E-1,-1.181084439E-1
4.808303583E0,-2.207010498E0,-1.239422607E1,7.721243591E0,4.817038583E0,9.195111990E-1,-2.183888294E-2,-2.845879495E-1
4.818285583E0,-3.210224304E0,-9.740245056E0,2.397564240E0,4.827020583E0,3.742422760E-1,-1.046390176E0,-3.606134653E-1
4.828267583E0,-3.197500763E0,-7.462581482E0,-3.107238464E0,4.837002583E0,-6.517245620E-2,-1.680548668E0,-2.702593803E-1
4.838249583E0,-3.123404846E0,-5.887407074E0,-6.179599457E0,4.846984583E0,-1.642228663E-1,-1.410629511E0,3.719271347E-2
4.848231583E0,-3.478316803E0,-4.783752136E0,-5.498815155E0,4.856966583E0,2.175503224E-1,-2.642945051E-1,4.018614888E-1
4.858213583E0,-3.845652924E0,-4.019441528E0,-2.749033356E0,4.866948583E0,9.780788422E-1,1.149526596E0,6.635103822E-1
4.868196583E0,-3.129691772E0,-3.354673920E0,1.018332367E0,4.876931583E0,1.708087444E0,2.457615137E0,8.909521699E-1
4.878178583E0,-2.593955841E0,-3.571123810E0,3.426973572E0,4.886913583E0,2.216340780E0,3.440669298E0,1.195271850E0
4.888160583E0,-3.086132355E0,-5.178032227E0,4.502487030E0,4.896895583E0,2.441422939E0,3.860233307E0,1.581598043E0
4.898142583E0,-3.699407043E0,-7.956853638E0,5.317991180E0,4.906877583E0,2.359850407E0,3.359105825E0,1.835565090E0
4.908124583E0,-3.318299561E0,-1.057041870E1,5.561684418E0,4.916859583E0,1.930108547E0,1.935396194E0,1.734286189E0
4.918106583E0,-2.402953033E0,-1.304761734E1,4.761598206E0,4.926841583E0,1.384656668E0,-1.132209413E-2,1.266792774E0
4.928088583E0,-8.464897156E-1,-1.475706253E1,2.895877991E0,4.936823583E0,9.973834753E-1,-1.820164561E0,7.578949332E-1
4.938070583E0,1.544937286E0,-1.506946289E1,1.279539185E0,4.946805583E0,8.066452146E-1,-2.703545332E0,3.763992488E-1
4.948052583E0,3.529660034E0,-1.526600418E1,-1.559756470E-1,4.956787583E0,8.218757510E-1,-2.320457220E0,5.597187672E-3
4.958034583E0,4.986580353E0,-1.467518280E1,-1.389560394E0,4.966769583E0,9.250367284E-1,-1.137441158E0,-3.466508985E-1
4.968016583E0,5.685776367E0,-1.272324188E1,-1.435365143E0,4.976751583E0,1.111453295E0,3.810794279E-2,-6.007786393E-1
4.977998583E0,4.617597656E0,-1.098490677E1,-1.982178040E0,4.986733583E0,1.417071223E0,1.101108432E0,-8.200356364E-1
4.987980583E0,2.524500275E0,-9.927505646E0,-1.381776581E0,4.996715583E0,1.665459991E0,1.758857727E0,-1.009597898E0
4.997962583E0,8.737330627E-1,-9.048982544E0,-6.069877625E-1,5.006698583E0,1.737699032E0,1.868979692E0,-1.081688404E0
5.007945583E0,-7.237449646E-1,-8.167615356E0,-8.029302979E-1,5.016680583E0,1.662842631E0,1.476079345E0,-1.013282299E0
5.017927583E0,-2.143243103E0,-7.578141174E0,-9.165440369E-1,5.026662583E0,1.518437982E0,9.199479818E-1,-8.113089204E-1
5.027909583E0,-3.281176758E0,-7.267088013E0,-4.782554626E-1,5.036644583E0,1.333085537E0,4.589284360E-1,-4.953261912E-1
5.037891583E0,-3.918701019E0,-7.169640656E0,2.719844055E-1,5.046626583E0,1.100934029E0,1.409973353E-1,-1.436509490E-1
5.047873583E0,-4.071982269E0,-7.129374390E0,3.523672485E-1,5.056608583E0,8.709891438E-1,-3.396807611E-2,1.433482766E-1
5.057855583E0,-3.535348206E0,-7.312443695E0,2.076182556E-1,5.066590583E0,6.751977801E-1,-5.168262124E-2,3.203525841E-1
5.067837583E0,-2.483335876E0,-7.976762238E0,8.397537231E-2,5.076572583E0,6.003251672E-1,5.459873937E-3,3.616870642E-1
5.077819583E0,-1.335373077E0,-8.714577942E0,1.266366577E-1,5.086554583E0,6.464684606E-1,1.992836744E-1,3.393037319E-1
5.087801583E0,-3.606001282E-1,-9.108109589E0,5.421725464E-1,5.096536583E0,7.410043478E-1,4.227527380E-1,3.041070700E-1
5.097783583E0,1.758842468E-1,-9.244026947E0,5.664221191E-1,5.106518583E0,8.021004796E-1,5.998004675E-1,2.833567858E-1
5.107765583E0,3.535647583E-1,-9.185049591E0,1.136137390E-1,5.116500583E0,8.257442713E-1,7.629406452E-1,2.591709197E-1
5.117747583E0,3.498225403E-1,-9.116941223E0,-1.745370483E-1,5.126482583E0,8.284990788E-1,9.126084447E-1,2.345481366E-1
5.127730583E0,3.688330078E-1,-9.093589783E0,-3.956272888E-1,5.136465583E0,8.307183385E-1,9.697527885E-1,2.260808349E-1
5.137712583E0,2.727328491E-1,-9.157057800E0,-5.837860107E-1,5.146447583E0,8.309681416E-1,8.787006736E-1,2.342870981E-1
5.147694583E0,8.113128662E-2,-9.140592041E0,-5.679190063E-1,5.156429583E0,8.683945537E-1,6.833720803E-1,2.688989043E-1
5.157676583E0,9.729766846E-2,-9.098080444E0,-4.833448792E-1,5.166411583E0,9.535185099E-1,4.905253351E-1,3.025937378E-1
5.167658583E0,-3.802093506E-2,-9.015751648E0,-1.348695374E-1,5.176393583E0,1.087281942E0,3.485110998E-1,3.149382770E-1
5.177640583E0,2.586621094E-1,-9.158704376E0,1.484912109E-1,5.186375583E0,1.178930640E0,2.869944870E-1,3.071914017E-1
5.187622583E0,3.706292725E-1,-9.128766632E0,4.824467468E-1,5.196357583E0,1.268133283E0,3.010263741E-1,3.236687481E-1
5.197604583E0,5.167254639E-1,-9.240135040E0,6.497987366E-1,5.206339583E0,1.346656799E0,3.317022622E-1,3.448118567E-1
5.207586583E0,3.203338623E-1,-9.195677490E0,1.014141083E0,5.216321583E0,1.443947434E0,3.110013902E-1,3.596226275E-1
5.217568583E0,3.170407104E-1,-9.345366211E0,1.099463654E0,5.226303583E0,1.552259326E0,2.302282453E-1,3.986808360E-1
5.227550583E0,6.376739502E-2,-9.276808777E0,1.023421783E0,5.236285583E0,1.617300749E0,9.449122846E-2,3.943418860E-1
5.237532583E0,-5.239105225E-3,-9.460027771E0,4.828958130E-1,5.246267583E0,1.632854939E0,3.920640051E-2,4.287078381E-1
5.247515583E0,-1.092727661E-2,-9.362430725E0,-1.225950623E-1,5.256250583E0,1.528676629E0,7.036224008E-2,4.197466075E-1
5.257497583E0,9.415420532E-2,-9.466763763E0,-9.442364502E-1,5.266232583E0,1.372352004E0,1.405605078E-1,4.567373693E-1
5.267479583E0,3.884422302E-1,-9.493707733E0,-1.596579895E0,5.276214208E0,1.128507733E0,1.192308962E-1,4.428951740E-1
5.277461208E0,2.812651062E-1,-1.008093658E1,-2.220183105E0,5.286196208E0,8.906851411E-1,3.128239512E-2,3.902636468E-1
5.287443208E0,3.757186890E-1,-1.125210114E1,-2.640059967E0,5.296178208E0,6.478614807E-1,-1.809086464E-2,3.277581334E-1
5.297425208E0,6.062393188E-2,-1.236264175E1,-2.592159576E0,5.306160208E0,3.815613985E-1,6.348841637E-2,2.588027716E-1
5.307407208E0,1.526824951E-1,-1.316691925E1,-2.514620819E0,5.316142208E0,1.137194261E-1,3.122954667E-1,2.428167164E-1
5.317389208E0,2.517764282E-1,-1.300196228E1,-2.148033142E0,5.326124208E0,-9.950017184E-2,6.324548125E-1,2.640546262E-1
5.327371208E0,3.805087280E-1,-1.226175156E1,-1.491348724E0,5.336106208E0,-2.111000568E-1,8.101988435E-1,2.732776701E-1
5.337353208E0,5.219645691E-1,-1.155058044E1,-7.056326294E-1,5.346088208E0,-2.211335152E-1,7.160595655E-1,2.124420255E-1
5.347335208E0,6.962022400E-1,-1.122725281E1,-9.131011963E-2,5.356070208E0,-1.517339647E-1,4.379289746E-1,1.252797097E-1
5.357317208E0,8.452922058E-1,-1.123309067E1,9.475296021E-2,5.366052208E0,-1.042615250E-1,2.240361124E-1,1.157437339E-1
5.367300208E0,4.525090027E-1,-1.086934708E1,2.219883728E-1,5.376035208E0,-1.858133376E-1,5.850002542E-2,1.248669028E-1
5.377282208E0,2.772235107E-1,-1.092563004E1,-5.507048035E-1,5.386017208E0,-4.097646773E-1,-9.999880195E-2,1.342755854E-1
5.387264208E0,4.287084961E-1,-1.139265884E1,-1.713037720E0,5.395999208E0,-7.455448508E-1,-2.030997723E-1,1.403409541E-1
5.397246208E0,4.471202087E-1,-1.227237946E1,-2.622097321E0,5.405981208E0,-1.113910198E0,-2.828369141E-1,8.405424654E-2
5.407228208E0,9.397457886E-1,-1.333771408E1,-3.157982941E0,5.415963208E0,-1.441116095E0,-2.383178025E-1,-2.492093481E-4
5.417210208E0,1.371148682E0,-1.359832214E1,-2.868784332E0,5.425945208E0,-1.686229467E0,-9.377738833E-2,-1.908260733E-1
5.427192208E0,1.823358307E0,-1.333292404E1,-2.008972321E0,5.435927208E0,-1.864360690E0,4.671548307E-2,-4.428913891E-1
5.437174208E0,2.038161621E0,-1.270333328E1,-9.110055542E-1,5.445909208E0,-2.101690769E0,1.230163798E-1,-6.684965491E-1
5.447156208E0,1.674717407E0,-1.243748611E1,-5.243595886E-1,5.455891208E0,-2.462585688E0,1.037612706E-1,-8.185963631E-1
5.457138208E0,1.214125214E0,-1.266516266E1,-1.152752838E0,5.465873208E0,-2.834326267E0,1.959925704E-2,-8.940969706E-1
5.467120208E0,7.638615417E-1,-1.264211060E1,-1.365011444E0,5.475855208E0,-3.143224955E0,-1.128980890E-1,-9.018045664E-1
5.477102208E0,2.787203979E-1,-1.198572556E1,-6.550378418E-1,5.485838208E0,-3.366268635E0,-2.813193202E-1,-8.481557369E-1
5.487085208E0,-3.432362366E-1,-1.139595200E1,2.787203979E-1,5.495820208E0,-3.442121267E0,-5.835025907E-1,-7.685035467E-1
5.497067208E0,-1.246008911E0,-1.112785950E1,1.033001862E0,5.505802208E0,-3.344396353E0,-9.292674661E-1,-7.439912558E-1
5.507049208E0,-2.334545288E0,-1.127814697E1,1.654509430E0,5.515784208E0,-3.175760269E0,-1.197951794E0,-7.573491931E-1
5.517031208E0,-3.156785431E0,-1.202045334E1,1.717528381E0,5.525766208E0,-3.055718184E0,-1.327796698E0,-6.002133489E-1
5.527013208E0,-4.765639801E0,-1.374666367E1,5.284011841E-1,5.535748208E0,-2.939628363E0,-1.031941891E0,-3.084150851E-1
5.536995208E0,-6.732100525E0,-1.599588638E1,-3.489244080E-1,5.545730208E0,-2.774596453E0,-2.655871511E-1,-6.959772855E-2
5.546977208E0,-7.467521210E0,-1.750519775E1,1.691482544E-2,5.555712208E0,-2.588362217E0,6.055453420E-1,-1.449672878E-2
5.556959208E0,-6.283333740E0,-1.731703903E1,6.165678406E-1,5.565694208E0,-2.394149780E0,1.348701954E0,-4.560644180E-2
5.566941208E0,-4.281696167E0,-1.568887482E1,9.309141541E-1,5.575676208E0,-2.130438805E0,1.839500666E0,-1.493953317E-1
5.576923208E0,-2.828069000E0,-1.365849701E1,1.398392029E0,5.585658208E0,-1.827311635E0,1.977164865E0,-2.805102170E-1
5.586905208E0,-1.421743469E0,-1.208466980E1,1.960024109E0,5.595640208E0,-1.628743291E0,1.755855799E0,-3.727785051E-1
5.596888208E0,-6.806346130E-1,-1.142289597E1,1.524579620E0,5.605623208E0,-1.600057006E0,1.148418427E0,-3.856264055E-1
5.606870208E0,-2.779719543E-1,-1.092967163E1,4.312532043E-1,5.615605208E0,-1.701948047E0,2.407746613E-1,-3.084111512E-1
5.616852208E0,-4.331991577E-1,-1.047701294E1,-5.510041809E-1,5.625587208E0,-1.821958542E0,-7.902378440E-1,-2.705071568E-1
5.626834208E0,-2.074685669E-1,-9.816436615E0,-9.815089417E-1,5.635569208E0,-1.932465315E0,-1.608629227E0,-3.173358738E-1
5.636816208E0,3.809577942E-1,-9.286688232E0,-1.113235016E0,5.645551208E0,-1.998162270E0,-1.937223315E0,-4.563872516E-1
5.646798208E0,1.470242615E0,-8.884923706E0,-1.444346466E0,5.655533208E0,-2.014685392E0,-1.909013271E0,-6.059567332E-1
5.656780208E0,2.273771667E0,-8.826245728E0,-1.698966980E0,5.665515208E0,-2.030437708E0,-1.872374415E0,-6.960613132E-1
5.666762208E0,2.436483307E0,-8.949888611E0,-2.137405243E0,5.675497208E0,-1.982830048E0,-1.846935749E0,-7.196583748E-1
5.676744208E0,1.819017334E0,-9.050928497E0,-1.800904999E0,5.685479208E0,-1.864983797E0,-1.827473879E0,-7.448343039E-1
5.686726208E0,1.344055023E0,-8.694369965E0,-6.822811890E-1,5.695461208E0,-1.685696006E0,-1.723588824E0,-7.205028534E-1
5.696708208E0,8.577163696E-1,-8.010591888E0,3.577560425E-1,5.705443208E0,-1.500755429E0,-1.619824648E0,-7.196424007E-1
5.706690208E0,2.112107849E-1,-7.009473724E0,1.012045441E0,5.715426208E0,-1.334535718E0,-1.615290046E0,-6.881906986E-1
5.716673208E0,-4.469705200E-1,-5.922583923E0,1.195863190E0,5.725408208E0,-1.193806291E0,-1.680590749E0,-6.449806690E-1
5.726655208E0,-1.135987701E0,-4.908891907E0,1.363514557E0,5.735390208E0,-1.049684763E0,-1.729412198E0,-5.842083097E-1
5.736637208E0,-1.535357208E0,-3.908821564E0,1.457668762E0,5.745372208E0,-8.977419138E-1,-1.707382202E0,-5.403470993E-1
5.746619208E0,-1.839375000E0,-2.995420990E0,1.513802032E0,5.755354208E0,-7.494066358E-1,-1.620556116E0,-4.949167371E-1
5.756601208E0,-1.898052979E0,-2.354902954E0,1.261426849E0,5.765336208E0,-5.754899979E-1,-1.386767387E0,-4.354675412E-1
5.766583208E0,-2.254910889E0,-1.944306793E0,9.107061768E-1,5.775318208E0,-3.340710700E-1,-1.047650099E0,-3.730245233E-1
5.776565208E0,-2.598596191E0,-1.904040527E0,6.059399414E-1,5.785300208E0,-2.797638252E-2,-7.022484541E-1,-3.281047046E-1
5.786547208E0,-2.763852539E0,-2.184856567E0,1.438508606E-1,5.795282208E0,3.227790594E-1,-3.393091261E-1,-2.617120445E-1
5.796529208E0,-2.919379120E0,-2.707419891E0,-3.403921509E-1,5.805264208E0,6.717482209E-1,-1.067805216E-1,-1.981035173E-1
5.806511208E0,-2.981200562E0,-3.290307770E0,-8.463400269E-1,5.815246208E0,1.024490833E0,-2.454798669E-2,-1.539743245E-1
5.816493208E0,-2.793939972E0,-3.571572876E0,-1.096020813E0,5.825229208E0,1.388842225E0,-1.533637941E-2,-1.143568680E-1
5.826476208E0,-2.569257202E0,-3.630101166E0,-1.041234741E0,5.835211208E0,1.739292979E0,-3.380667791E-2,-4.803687334E-2
5.836458208E0,-2.625839539E0,-3.708687744E0,-9.969268799E-1,5.845193208E0,2.032131672E0,-7.606651634E-2,3.212187812E-2
5.846440208E0,-2.767445068E0,-3.953877869E0,-1.369202728E0,5.855175208E0,2.242656946E0,-1.331529468E-1,1.129544750E-1
5.856422208E0,-2.722538452E0,-4.359234924E0,-2.081122284E0,5.865157208E0,2.397070408E0,-1.768367738E-1,1.861770302E-1
5.866404208E0,-2.531385956E0,-5.017715607E0,-2.857707367E0,5.875139208E0,2.503043652E0,-2.200854123E-1,2.606684566E-1
5.876386208E0,-2.352058868E0,-6.180796967E0,-3.580254822E0,5.885121208E0,2.513056517E0,-2.064010203E-1,3.256024420E-1
5.886368208E0,-2.250719604E0,-7.932304688E0,-4.345613251E0,5.895103208E0,2.392176390E0,-1.552485973E-1,3.552369475E-1
5.896350208E0,-1.839225311E0,-1.033211426E1,-5.184768219E0,5.905085208E0,2.066018820E0,2.971406840E-2,3.721634448E-1
5.906332208E0,-1.019080811E0,-1.362661331E1,-6.198909302E0,5.915067208E0,1.372435093E0,3.554283977E-1,3.834555149E-1
5.916314208E0,-4.655319214E-2,-1.754681122E1,-8.871900787E0,5.925049208E0,2.598379552E-1,8.243703246E-1,3.391469121E-1
5.926296208E0,7.014413452E-1,-2.188508972E1,-1.418719757E1,5.935031208E0,-8.943898678E-1,7.267331481E-1,7.396679372E-2
5.936279208E0,1.042881317E0,-2.572969482E1,-1.882650009E1,5.945014208E0,-1.837738276E0,-5.820848346E-1,-3.954353034E-1
5.946261208E0,1.541644135E0,-2.541654602E1,-1.985770569E1,5.954996208E0,-2.113492012E0,-1.904928803E0,-8.384113908E-1
5.956243208E0,2.507884827E0,-2.036155792E1,-1.730356705E1,5.964978208E0,-1.771834493E0,-1.841494203E0,-1.020627499E0
5.966225208E0,1.829944611E0,-1.413286057E1,-1.131272507E1,5.974960208E0,-1.166977406E0,-9.634413719E-1,-1.076698303E0
5.976207208E0,1.178499298E0,-9.026229858E0,-6.287974091E0,5.984942208E0,-5.115257502E-1,-1.192951724E-1,-1.074478507E0
5.986189208E0,1.273102570E0,-5.225034485E0,-3.932472382E0,5.994924208E0,6.546556950E-2,3.562209308E-1,-9.372369647E-1
5.996171208E0,1.244362335E0,-2.713557129E0,-2.785557404E0,6.004906208E0,5.704209208E-1,5.929200053E-1,-5.969172120E-1
6.006153208E0,3.429368591E-1,-2.138902130E0,-1.994602203E0,6.014888208E0,1.077755809E0,7.096444368E-1,-1.872130036E-1
6.016135208E0,-1.062939606E0,-3.363206177E0,-3.218307495E-1,6.024870208E0,1.466105461E0,8.896829486E-1,1.011495367E-1
6.026117208E0,-1.614392853E0,-5.457650757E0,1.420995026E0,6.034852208E0,1.750917315E0,1.400542021E0,2.618263364E-1
6.036099208E0,-1.563648376E0,-8.156538391E0,3.194956055E0,6.044834208E0,2.029916525E0,2.022763968E0,3.601672947E-1
6.046081208E0,-1.818119202E0,-1.151630173E1,6.352938995E0,6.054816208E0,2.101900101E0,2.040721893E0,5.278918147E-1
6.056064208E0,-3.242557068E0,-1.464449661E1,8.156538391E0,6.064799208E0,1.850217462E0,1.413062811E0,5.356871486E-1
6.066046208E0,-4.531676331E0,-1.633747604E1,5.876629486E0,6.074781208E0,1.314057350E0,4.350666404E-1,2.765107155E-1
6.076028208E0,-4.687801666E0,-1.700508774E1,1.651066589E0,6.084763208E0,3.384139538E-1,-6.958170533E-1,-1.053181291E-1
6.086010208E0,-3.629053345E0,-1.600546646E1,-3.711531830E0,6.094745208E0,-7.191991210E-1,-1.644791245E0,-3.269945681E-1
6.095992208E0,-1.974843292E0,-1.338217163E1,-9.338779907E0,6.104727208E0,-1.037837029E0,-1.805104017E0,-2.494462430E-1
6.105974208E0,-2.244732056E0,-1.075782898E1,-8.778345337E0,6.114709208E0,-6.818066239E-1,-9.569953680E-1,-5.599385127E-2
6.115956208E0,-2.975512390E0,-7.832162933E0,-4.568948822E0,6.124691208E0,1.041313559E-1,4.951898456E-1,1.400307715E-1
6.125938208E0,-3.197201385E0,-4.627327423E0,-3.064128113E-1,6.134673208E0,1.028078794E0,1.770266414E0,3.151495457E-1
6.135920208E0,-2.595452728E0,-1.972148895E0,2.811154175E0,6.144655208E0,1.850632310E0,2.549262762E0,5.888596177E-1
6.145902208E0,-2.625390472E0,-8.253836060E-1,4.898862762E0,6.154637208E0,2.183263063E0,2.981850147E0,8.704003096E-1
6.155884208E0,-3.427722015E0,-2.069147186E0,5.179529114E0,6.164619208E0,2.113079309E0,2.910727501E0,1.181582451E0
6.165866208E0,-3.763922882E0,-4.587061157E0,4.518803101E0,6.174602208E0,1.728222609E0,2.267461538E0,1.391821146E0
6.175849208E0,-3.340004425E0,-7.047794037E0,4.437971191E0,6.184584208E0,1.168077826E0,1.136156440E0,1.417378426E0
6.185831208E0,-2.398013306E0,-9.867480469E0,4.054618378E0,6.194566208E0,7.285730839E-1,-2.013776600E-1,1.315621853E0
6.195813208E0,-1.315015411E0,-1.262594421E1,4.107458496E0,6.204548208E0,6.059856415E-1,-1.390291572E0,1.087255239E0
6.205795208E0,8.653504944E-1,-1.444765594E1,4.195774841E0,6.214530208E0,8.730704188E-1,-2.131672382E0,7.230271697E-1
6.215777208E0,3.702550507E0,-1.523831177E1,3.507506104E0,6.224512208E0,1.355312228E0,-2.161247969E0,2.147405148E-1
6.225759208E0,6.101611633E0,-1.539997559E1,1.845212860E0,6.234494208E0,1.774120569E0,-1.458742619E0,-3.433278501E-1
6.235741208E0,7.184759216E0,-1.489507553E1,-5.938151550E-1,6.244476208E0,1.949984312E0,-3.834410012E-1,-7.979483604E-1
6.245723208E0,5.985153809E0,-1.339684113E1,-2.915487213E0,6.254458208E0,1.866045117E0,6.307641864E-1,-1.068179607E0
6.255705208E0,3.254232788E0,-1.168455185E1,-4.259841614E0,6.264440208E0,1.602592945E0,1.227624893E0,-1.159580112E0
6.265687208E0,7.753875732E-1,-1.020532791E1,-4.542004852E0,6.274421833E0,1.339685678E0,1.204919934E0,-1.096690774E0
6.275668833E0,-1.073567505E0,-8.723110199E0,-3.657643890E0,6.284403833E0,1.145018458E0,8.406401873E-1,-9.174293280E-1
6.285651833E0,-2.801424408E0,-7.396868134E0,-2.107916565E0,6.294386833E0,1.030630708E0,4.949397445E-1,-6.681344509E-1
6.295633833E0,-4.015699310E0,-6.526877289E0,-8.054750061E-1,6.304368833E0,9.521586299E-1,2.330066860E-1,-3.415472507E-1
6.305615833E0,-4.835843811E0,-6.007307739E0,8.038284302E-2,6.314350833E0,8.741911650E-1,-3.932462633E-2,-1.088524424E-2
6.315597833E0,-4.913681946E0,-5.888155518E0,5.879772949E-1,6.324332833E0,7.646372318E-1,-2.053119987E-1,2.752274871E-1
6.325579833E0,-4.424199829E0,-6.485114136E0,1.020877075E0,6.334314833E0,6.503455639E-1,-1.700197458E-1,4.406721890E-1
6.335561833E0,-3.271746368E0,-7.483088837E0,9.463320923E-1,6.344296833E0,6.068260670E-1,3.559706360E-2,5.022341013E-1
6.345543833E0,-1.661844177E0,-8.501121826E0,7.089257812E-1,6.354278833E0,6.775039434E-1,3.501164317E-1,4.982463121E-1
6.355525833E0,-5.560935974E-1,-9.255552979E0,5.539979553E-1,6.364260833E0,8.053452969E-1,6.532691121E-1,4.299247861E-1
6.365507833E0,3.320095825E-1,-9.715546417E0,4.059558105E-1,6.374242833E0,9.170681834E-1,8.571999073E-1,3.288857341E-1
6.375489833E0,9.096583557E-1,-1.002450394E1,8.652008057E-2,6.384224833E0,9.704880118E-1,9.509617686E-1,2.494255304E-1
6.385471833E0,1.136586456E0,-1.004785538E1,-1.845661926E-1,6.394206833E0,9.604168534E-1,9.326221943E-1,2.198564708E-1
6.395453833E0,1.103355560E0,-9.811347198E0,-4.941224670E-1,6.404189833E0,9.070644379E-1,8.470546007E-1,2.364724725E-1
6.405436833E0,8.348139954E-1,-9.542356567E0,-8.315208435E-1,6.414171833E0,8.771733046E-1,7.297698855E-1,2.682098448E-1
6.415418833E0,5.177732849E-1,-9.121282196E0,-9.273216248E-1,6.424153833E0,9.447646141E-1,5.742940307E-1,3.153693676E-1
6.425400833E0,2.242337036E-1,-8.742420044E0,-5.878276062E-1,6.434135833E0,1.089109898E0,3.561970890E-1,3.512963951E-1
6.435382833E0,1.781295776E-2,-8.608448639E0,-2.068698120E-1,6.444117833E0,1.267902255E0,1.759934872E-1,3.949061930E-1
6.445364833E0,-6.646179199E-2,-8.863218842E0,-5.613327026E-2,6.454099833E0,1.420369864E0,1.013411954E-1,4.138762057E-1
6.455346833E0,-1.345701599E-1,-9.266779633E0,-7.155120850E-2,6.464081833E0,1.518719912E0,1.447706968E-1,4.350478053E-1
6.465328833E0,-5.313949585E-2,-9.625284119E0,-2.655477905E-1,6.474063833E0,1.516610503E0,3.034237325E-1,4.512831569E-1
6.475310833E0,-7.798782349E-2,-9.775870972E0,-5.438191223E-1,6.484045833E0,1.417507887E0,4.684497118E-1,5.058153272E-1
6.485292833E0,3.592529297E-2,-9.759554901E0,-9.524693298E-1,6.494027833E0,1.183492184E0,4.632852376E-1,5.383107066E-1
6.495274833E0,4.849914551E-2,-9.746531982E0,-1.528770905E0,6.504009833E0,8.780697584E-1,2.590405047E-1,5.254518986E-1
6.505256833E0,3.264710999E-1,-9.981094208E0,-2.080523529E0,6.513991833E0,5.654859543E-1,-4.117477313E-2,4.064605236E-1
6.515239833E0,6.508465576E-1,-1.079300583E1,-2.318378906E0,6.523974833E0,3.395499885E-1,-2.048127204E-1,2.840648592E-1
6.525221833E0,9.484277344E-1,-1.164787811E1,-2.025438080E0,6.533956833E0,1.983198673E-1,-9.115155041E-2,2.082119882E-1
6.535203833E0,9.110055542E-1,-1.202224960E1,-1.444496155E0,6.543938833E0,9.056092054E-2,2.427678406E-1,1.598774791E-1
6.545185833E0,8.797206116E-1,-1.190549240E1,-9.418414307E-1,6.553920833E0,-1.307017915E-2,6.185846925E-1,1.394813210E-1
6.555167833E0,9.225315857E-1,-1.148187332E1,-4.854405212E-1,6.563902833E0,-1.176365390E-1,7.479421496E-1,6.987668574E-2
6.565149833E0,1.000220032E0,-1.140373581E1,-1.505868530E-1,6.573884833E0,-1.060942337E-1,7.061018348E-1,1.599089988E-2
6.575131833E0,9.767189026E-1,-1.134131561E1,2.585124207E-1,6.583866833E0,-1.255017426E-2,5.140993595E-1,-4.856652021E-2
6.585113833E0,6.080355835E-1,-1.144939087E1,5.427713013E-1,6.593848833E0,1.235202774E-1,3.776332736E-1,-4.048371315E-2
6.595095833E0,9.999206543E-2,-1.119836288E1,4.355941772E-1,6.603830833E0,9.835314006E-2,2.230375707E-1,5.859017372E-3
6.605077833E0,-5.288502502E-1,-1.097996704E1,-4.601431274E-1,6.613812833E0,-9.980857372E-2,8.209585398E-2,1.059834212E-1
6.615059833E0,-8.975335693E-1,-1.096410004E1,-1.908830566E0,6.623794833E0,-4.294152260E-1,-8.303584158E-2,1.430689991E-1
6.625041833E0,-8.081694031E-1,-1.170056854E1,-3.202290802E0,6.633777833E0,-7.217120528E-1,-1.929734051E-1,1.334220171E-1
6.635024833E0,-1.845661926E-1,-1.273611511E1,-3.489393768E0,6.643759833E0,-9.415085912E-1,-2.048492432E-1,4.380984604E-2
6.645006833E0,6.620732117E-1,-1.370055954E1,-3.102598114E0,6.653741833E0,-1.155612230E0,-9.664133936E-2,-9.363937378E-2
6.654988833E0,1.489103394E0,-1.363604370E1,-2.607427826E0,6.663723833E0,-1.452525139E0,1.493836045E-1,-2.489290982E-1
6.664970833E0,2.248773651E0,-1.285332138E1,-2.509232025E0,6.673705833E0,-1.834943891E0,4.624865949E-1,-3.938460350E-1
6.674952833E0,2.842439117E0,-1.193049042E1,-2.552192688E0,6.683687833E0,-2.229271889E0,5.964004397E-1,-5.101729631E-1
6.684934833E0,3.043770447E0,-1.161659317E1,-2.227966919E0,6.693669833E0,-2.514384031E0,4.521983862E-1,-6.068863273E-1
6.694916833E0,2.761756897E0,-1.198737213E1,-1.522783356E0,6.703651833E0,-2.684724808E0,2.047813311E-2,-6.539004445E-1
6.704898833E0,1.968556366E0,-1.228600113E1,-5.864804077E-1,6.713633833E0,-2.823519468E0,-5.204166770E-1,-6.388530731E-1
6.714880833E0,8.765771484E-1,-1.252819748E1,1.721420288E-1,6.723615833E0,-2.998645067E0,-9.907588959E-1,-6.057976484E-1
6.724862833E0,2.170486450E-2,-1.238060440E1,7.593708801E-1,6.733597833E0,-3.180305004E0,-1.346309304E0,-5.933336616E-1
6.734844833E0,-6.703060913E-1,-1.213885712E1,8.695417786E-1,6.743579833E0,-3.310662270E0,-1.459584236E0,-5.778772235E-1
6.744826833E0,-1.806742859E0,-1.212358887E1,5.554948425E-1,6.753562833E0,-3.284416676E0,-1.398100495E0,-4.879763424E-1
6.754809833E0,-3.559298401E0,-1.259061768E1,2.511776733E-1,6.763544833E0,-3.075052500E0,-1.161274552E0,-3.178962171E-1
6.764791833E0,-5.777535553E0,-1.349922821E1,3.079096985E-1,6.773526833E0,-2.774493456E0,-6.711229086E-1,-1.179915965E-1
6.774773833E0,-7.576943665E0,-1.481544113E1,4.297563171E-1,6.783508833E0,-2.504812002E0,7.770708948E-2,6.395503879E-2
6.784755833E0,-8.603059845E0,-1.604513397E1,4.938230896E-1,6.793490833E0,-2.289567232E0,8.655079603E-1,1.584204137E-1
6.794737833E0,-8.253536682E0,-1.605950409E1,5.297483826E-1,6.803472833E0,-2.105406046E0,1.453270555E0,1.232230142E-1
6.804719833E0,-6.476132812E0,-1.447385147E1,5.186714172E-1,6.813454833E0,-1.934212685E0,1.657707691E0,8.393885568E-3
6.814701833E0,-4.177063751E0,-1.248344055E1,4.686753845E-1,6.823436833E0,-1.774239182E0,1.506420732E0,-8.206970245E-2
6.824683833E0,-2.286345520E0,-1.127709915E1,4.007167053E-1,6.833418833E0,-1.681470275E0,1.118758440E0,-1.057145074E-1
6.834665833E0,-1.120420074E0,-1.039228912E1,1.046324158E-1,6.843400833E0,-1.695683837E0,5.218903422E-1,-9.040239453E-2
6.844647833E0,-4.580474854E-1,-9.787995758E0,-5.158273315E-1,6.853382833E0,-1.769968867E0,-2.245020568E-1,-9.197902679E-2
6.854629833E0,4.206253052E-1,-9.415719910E0,-1.059796143E0,6.863364833E0,-1.849434853E0,-8.384197950E-1,-1.356876194E-1
6.864612833E0,9.092092896E-1,-9.101523285E0,-1.249601440E0,6.873347833E0,-1.826108336E0,-1.226348281E0,-2.364898324E-1
6.874594833E0,1.244212646E0,-8.831784210E0,-1.072220306E0,6.883329833E0,-1.684018373E0,-1.341446638E0,-3.800824285E-1
6.884576833E0,1.860780487E0,-8.857680359E0,-4.697232056E-1,6.893311833E0,-1.577288985E0,-1.311114073E0,-5.763742328E-1
6.894558833E0,2.274969177E0,-8.882079620E0,-4.583468628E-1,6.903293833E0,-1.569194913E0,-1.268850803E0,-7.774074674E-1
6.904540833E0,2.488125916E0,-8.912915497E0,-1.287772064E0,6.913275833E0,-1.565347552E0,-1.291618466E0,-9.138481021E-1
6.914522833E0,2.380649414E0,-8.826545105E0,-1.571881256E0,6.923257833E0,-1.493356705E0,-1.233066797E0,-9.405244589E-1
6.924504833E0,1.973645782E0,-8.690777435E0,-1.116827545E0,6.933239833E0,-1.388399601E0,-1.134031296E0,-9.497026801E-1
6.934486833E0,1.237925720E0,-8.311915283E0,-3.637435913E-1,6.943221833E0,-1.283101678E0,-1.092479587E0,-1.008343697E0
6.944468833E0,6.761439514E-1,-7.420668640E0,6.646179199E-2,6.953203833E0,-1.148066640E0,-1.136701107E0,-1.025805712E0
6.954450833E0,-1.429527283E-1,-6.513105927E0,4.626878357E-1,6.963185833E0,-9.789622426E-1,-1.211287498E0,-9.715611339E-1
6.964432833E0,-1.271605682E0,-5.837411041E0,9.457333374E-1,6.973167833E0,-8.288214207E-1,-1.332793474E0,-9.244239330E-1
6.974414833E0,-1.831291809E0,-5.031936035E0,1.075962524E0,6.983149833E0,-6.791639924E-1,-1.434863567E0,-8.829150796E-1
6.984396833E0,-2.059267731E0,-4.256548462E0,9.392967224E-1,6.993132833E0,-5.333788991E-1,-1.443160295E0,-8.171688318E-1
6.994379833E0,-2.549947357E0,-3.725602570E0,8.301736450E-1,7.003114833E0,-3.940028250E-1,-1.428707361E0,-7.489551306E-1
7.004361833E0,-2.762505341E0,-3.469934235E0,4.511618042E-1,7.013096833E0,-2.496794909E-1,-1.284822941E0,-7.036273479E-1
7.014343833E0,-2.665057983E0,-3.259771271E0,-1.231938171E-1,7.023078833E0,-4.927208275E-2,-9.246740937E-1,-6.105883121E-1
7.024325833E0,-3.126997375E0,-3.393143921E0,-4.201762390E-1,7.033060833E0,2.047549486E-1,-5.677981973E-1,-5.165410638E-1
7.034307833E0,-3.219954071E0,-3.578308868E0,-8.934919739E-1,7.043042833E0,5.055510402E-1,-2.788343430E-1,-4.517239928E-1
7.044289833E0,-3.050356750E0,-3.653003540E0,-1.277293854E0,7.053024833E0,8.368732929E-1,-4.575293139E-2,-4.016799927E-1
7.054271833E0,-2.946472778E0,-3.759282532E0,-1.283580780E0,7.063006833E0,1.168278933E0,7.745715231E-2,-3.440049887E-1
7.064253833E0,-2.795885925E0,-3.779640198E0,-1.121318207E0,7.072988833E0,1.489954472E0,9.423088282E-2,-2.715697289E-1
7.074235833E0,-2.699636078E0,-3.839815063E0,-9.389973450E-1,7.082970833E0,1.783112049E0,8.582781255E-2,-1.788840145E-1
7.084217833E0,-2.691552887E0,-4.008663940E0,-9.963281250E-1,7.092952833E0,2.010267496E0,5.155910179E-2,-5.939190835E-2
7.094199833E0,-2.697091370E0,-4.327201538E0,-1.444047089E0,7.102934833E0,2.182485342E0,4.522317275E-2,6.311270595E-2
7.104181833E0,-2.549348602E0,-4.744833069E0,-2.059567108E0,7.112917833E0,2.309683084E0,9.199574590E-2,1.893201470E-1
7.114164833E0,-2.267335052E0,-5.302872620E0,-2.547103271E0,7.122899833E0,2.402807951E0,1.654510647E-1,3.327534497E-1
7.124146833E0,-2.174977112E0,-6.219266968E0,-2.923869781E0,7.132881833E0,2.428940058E0,1.957853884E-1,4.770230651E-1
7.134128833E0,-2.100881195E0,-7.742349701E0,-3.557352448E0,7.142863833E0,2.309958458E0,1.565508991E-1,5.861649513E-1
7.144110833E0,-1.630409546E0,-1.005234604E1,-4.854255524E0,7.152845833E0,1.944802046E0,2.280997783E-1,6.476893425E-1
7.154092833E0,-8.786727905E-1,-1.310734314E1,-6.966513062E0,7.162827833E0,1.314283729E0,5.050959587E-1,6.210502386E-1
7.164074833E0,-2.275268555E-2,-1.656350601E1,-1.002420456E1,7.172809833E0,4.734912515E-1,5.669032931E-1,5.040794015E-1
7.174056833E0,5.557942200E-1,-1.997685791E1,-1.372480911E1,7.182791833E0,-5.744168162E-1,-2.808253467E-1,2.388624102E-1
7.184038833E0,1.081501007E0,-2.271616150E1,-1.745714767E1,7.192773833E0,-1.537161231E0,-1.694822073E0,-3.308291435E-1
7.194020833E0,3.071313171E0,-2.267394928E1,-2.003957748E1,7.202755833E0,-1.719685555E0,-2.097133160E0,-8.505732417E-1
7.204002833E0,5.359305267E0,-1.918784866E1,-1.652398819E1,7.212737833E0,-1.339799404E0,-1.341040850E0,-1.038013577E0
7.213984833E0,4.566853180E0,-1.464045502E1,-9.023834839E0,7.222719833E0,-7.801846266E-1,-2.347062975E-1,-1.044067383E0
7.223967833E0,3.389850769E0,-1.019814285E1,-4.708309021E0,7.232702833E0,-2.631686926E-1,3.600541055E-1,-9.830902219E-1
7.233949833E0,2.863694916E0,-6.434669037E0,-2.906056824E0,7.242684833E0,1.352806836E-1,3.287225664E-1,-8.341803551E-1
7.243931833E0,2.081421661E0,-4.207899628E0,-2.824326782E0,7.252666833E0,5.660983920E-1,1.869914532E-1,-5.800058842E-1
7.253913833E0,7.658074951E-1,-4.271217957E0,-2.528990936E0,7.262648833E0,1.126351833E0,2.933629155E-1,-3.541783690E-1
7.263895833E0,-3.115022278E-1,-5.391188965E0,-7.921527100E-1,7.272630833E0,1.756588221E0,6.253194213E-1,-1.560925394E-1
7.273878417E0,-8.303233337E-1,-6.995702362E0,1.597178650E0,7.282613417E0,2.273175001E0,1.231581450E0,1.037555635E-1
7.283860417E0,-1.711840210E0,-9.440717926E0,3.689826965E0,7.292595417E0,2.514537334E0,1.970858216E0,4.376905560E-1
7.293842417E0,-3.153043213E0,-1.270497986E1,5.641169128E0,7.302577417E0,2.358491659E0,2.358889341E0,6.808875203E-1
7.303824417E0,-4.490062866E0,-1.593616058E1,6.389013977E0,7.312559417E0,1.823750019E0,1.973432541E0,6.512473822E-1
7.313806417E0,-4.995711365E0,-1.799018921E1,4.816384277E0,7.322541417E0,1.030342698E0,6.064265370E-1,3.413622379E-1
7.323788417E0,-4.794230347E0,-1.849793335E1,8.402027893E-1,7.332523417E0,-1.732381433E-1,-1.194376826E0,-5.400098115E-2
7.333770417E0,-3.369792480E0,-1.655871597E1,-5.789660339E0,7.342505417E0,-1.130462170E0,-2.003232479E0,-2.782287598E-1
7.343752417E0,-2.057471466E0,-1.307875259E1,-1.002884491E1,7.352488417E0,-1.204504728E0,-1.584797382E0,-2.225693911E-1
7.353735417E0,-2.325713654E0,-9.770182800E0,-5.906118164E0,7.362470417E0,-7.299827337E-1,-7.221230865E-1,-3.509590030E-2
7.363717417E0,-3.147205353E0,-6.365662537E0,-2.166295166E0,7.372452417E0,-7.944726199E-2,8.841466904E-2,1.549797356E-1
7.373699417E0,-3.772155762E0,-3.071013794E0,-5.996530151E-1,7.382434417E0,6.426368952E-1,9.151357412E-1,3.075234592E-1
7.383681417E0,-3.576213226E0,-3.245251465E-1,1.310524750E0,7.392416417E0,1.224264860E0,1.535262346E0,6.511546969E-1
7.393663417E0,-4.025878143E0,5.602848816E-1,2.905757446E0,7.402398417E0,1.504606247E0,1.937116861E0,1.049848795E0
7.403645417E0,-4.749174042E0,-1.209335175E0,3.615581360E0,7.412380417E0,1.471020460E0,1.984482169E0,1.453180671E0
7.413627417E0,-4.294270020E0,-3.564387817E0,4.132456512E0,7.422362417E0,1.222880363E0,1.669812322E0,1.696888447E0
7.423609417E0,-3.232078857E0,-6.263724518E0,4.521198120E0,7.432344417E0,9.557482004E-1,9.828280210E-1,1.665262341E0
7.433591417E0,-1.356179810E0,-9.548344116E0,5.443879395E0,7.442326417E0,8.103787303E-1,-3.626971692E-2,1.393059611E0
7.443573417E0,4.098477173E-1,-1.325343933E1,6.312373352E0,7.452308417E0,8.264605999E-1,-1.023132443E0,9.468597770E-1
7.453555417E0,2.618654480E0,-1.617925507E1,6.549330597E0,7.462290417E0,1.062846303E0,-1.682964206E0,4.189552367E-1
7.463537417E0,4.833448792E0,-1.729518448E1,5.478906555E0,7.472273417E0,1.528304219E0,-1.748077393E0,-1.398001164E-1
7.473520417E0,6.462810516E0,-1.716974533E1,3.437302094E0,7.482255417E0,2.017127037E0,-1.151858807E0,-6.282611489E-1
7.483502417E0,7.050338745E0,-1.580997299E1,5.682183838E-1,7.492237417E0,2.267747879E0,-1.917886436E-1,-1.048177719E0
7.493484417E0,5.856122131E0,-1.303204971E1,-2.750679932E0,7.502219417E0,2.202706099E0,6.810895205E-1,-1.339014173E0
7.503466417E0,2.992427216E0,-1.067026108E1,-5.225483551E0,7.512201417E0,1.853055954E0,1.139968991E0,-1.399923921E0
7.513448417E0,-3.656895447E-1,-9.541458435E0,-6.175258484E0,7.522183417E0,1.371952176E0,1.083505511E0,-1.230675578E0
7.523430417E0,-2.831362152E0,-8.468489685E0,-5.768404541E0,7.532165417E0,1.054406285E0,7.364571691E-1,-8.535445929E-1
7.533412417E0,-4.550387421E0,-7.322622528E0,-3.458707581E0,7.542147417E0,8.381541967E-1,3.060802519E-1,-4.355332255E-1
7.543394417E0,-5.721851349E0,-6.456373901E0,-5.824388123E-1,7.552129417E0,6.308243275E-1,-9.561043978E-2,-1.175430492E-1
7.553376417E0,-5.359305267E0,-5.976621552E0,5.607339478E-1,7.562111417E0,4.892016649E-1,-4.477881789E-1,8.567771316E-2
7.563358417E0,-4.398752747E0,-6.265371094E0,1.246757355E0,7.572093417E0,4.213907421E-1,-5.757940412E-1,2.065648586E-1
7.573340417E0,-3.051703949E0,-7.171736298E0,1.902244263E0,7.582075417E0,4.370719492E-1,-4.159500003E-1,3.010436893E-1
7.583322417E0,-2.067650299E0,-8.131091309E0,1.862576752E0,7.592058417E0,5.797392130E-1,-9.951719642E-2,3.441924751E-1
7.593305417E0,-1.211430817E0,-8.661288757E0,1.954934692E0,7.602040417E0,7.712250352E-1,2.950548828E-1,3.167912066E-1
7.603287417E0,-5.427713013E-1,-9.070537720E0,1.852697296E0,7.612022417E0,9.285009503E-1,7.064319849E-1,2.526444495E-1
7.613269417E0,8.532257080E-3,-9.274264069E0,1.423240356E0,7.622004417E0,9.695882201E-1,1.041229606E0,1.674791873E-1
7.623251417E0,3.135978699E-1,-9.477840729E0,7.047344971E-1,7.631986417E0,9.320815206E-1,1.233698726E0,1.009545550E-1
7.633233417E0,4.017645264E-1,-9.869276733E0,-1.320254517E-1,7.641968417E0,8.707843423E-1,1.216548681E0,9.688737243E-2
7.643215417E0,1.908531189E-1,-9.836345215E0,-4.673281860E-1,7.651950417E0,8.343620896E-1,1.025472522E0,1.265547872E-1
7.653197417E0,-1.002914429E-1,-9.629924469E0,-6.387217712E-1,7.661932417E0,8.531224132E-1,7.484137416E-1,1.641716659E-1
7.663179417E0,-2.888992310E-1,-9.241182861E0,-5.480104065E-1,7.671914417E0,9.538171887E-1,4.924314916E-1,2.176522315E-1
7.673161417E0,-4.951702881E-1,-8.843010864E0,-2.652484131E-1,7.681896417E0,1.103462577E0,3.189174831E-1,2.935062349E-1
7.683143417E0,-8.084687805E-1,-8.600664825E0,1.041833496E-1,7.691878417E0,1.243101358E0,2.391339689E-1,3.210314810E-1
7.693125417E0,-7.801776123E-1,-8.763675842E0,3.326083374E-1,7.701860417E0,1.360499620E0,2.231813669E-1,3.662032187E-1
7.703107417E0,-6.249504089E-1,-8.999136200E0,4.992118835E-1,7.711843417E0,1.439910293E0,2.317187935E-1,4.335835576E-1
7.713090417E0,-6.029461670E-1,-9.353449402E0,3.234773254E-1,7.721825417E0,1.437240481E0,2.626104057E-1,4.894529283E-1
7.723072417E0,-4.743635559E-1,-9.637857971E0,-1.869612122E-1,7.731807417E0,1.362464428E0,3.530081511E-1,5.306059718E-1
7.733054417E0,-1.766326904E-2,-9.865833893E0,-1.050216064E0,7.741789417E0,1.194997430E0,4.834471345E-1,5.346307755E-1
7.743036417E0,4.555027771E-1,-9.793683929E0,-1.622625732E0,7.751771417E0,9.794381857E-1,5.711081028E-1,5.150572658E-1
7.753018417E0,1.067430267E0,-9.861343231E0,-1.973795471E0,7.761753417E0,7.352867723E-1,5.279614329E-1,4.079113305E-1
7.763000417E0,1.513802032E0,-1.035576508E1,-2.030976563E0,7.771735417E0,5.438771844E-1,3.644524515E-1,2.941418588E-1
7.772982417E0,1.568438416E0,-1.123683289E1,-1.881287842E0,7.781717417E0,3.695559800E-1,2.271920592E-1,1.933148652E-1
7.782964417E0,1.523382111E0,-1.213990494E1,-1.702559509E0,7.791699417E0,1.845723391E-1,2.567955852E-1,1.883672923E-1
7.792946417E0,1.352287903E0,-1.243688736E1,-1.423090668E0,7.801681417E0,-3.637975827E-2,3.528766036E-1,2.097524852E-1
7.802928417E0,1.281185760E0,-1.216729797E1,-1.073118439E0,7.811663417E0,-1.873236746E-1,4.200197160E-1,2.012071460E-1
7.812910417E0,1.696571960E0,-1.194965057E1,-6.692582703E-1,7.821645417E0,-2.073770016E-1,3.141247332E-1,6.849410385E-2
7.822892417E0,1.904489594E0,-1.169368286E1,2.664459229E-2,7.831628417E0,-6.748183072E-2,1.810251921E-1,-8.131810278E-2
7.832875417E0,1.778002625E0,-1.165012344E1,4.343966675E-1,7.841610417E0,1.193524972E-1,1.716463268E-1,-1.665224880E-1
7.842857417E0,8.277786255E-1,-1.139445511E1,5.301974487E-1,7.851592417E0,1.702232957E-1,2.352728248E-1,-1.598439813E-1
7.852839417E0,-3.164419556E-1,-1.095751373E1,-2.378553772E-1,7.861574417E0,-1.126927603E-2,1.589772552E-1,-1.081608161E-1
7.862821417E0,-1.103954315E0,-1.086306015E1,-1.948198700E0,7.871556417E0,-3.554429412E-1,-3.052916750E-2,-8.936200291E-3
7.872803417E0,-1.768572235E0,-1.099957626E1,-3.459156647E0,7.881538417E0,-7.122093439E-1,-1.895787418E-1,7.009097189E-2
7.882785417E0,-1.978884888E0,-1.182391205E1,-4.173620911E0,7.891520417E0,-1.005988479E0,-1.858806163E-1,7.799311727E-2
7.892767417E0,-1.395248566E0,-1.282248550E1,-3.732338562E0,7.901502417E0,-1.271294475E0,-3.829861805E-2,3.161363304E-2
7.902749417E0,-4.093986511E-1,-1.336226303E1,-2.977907410E0,7.911484417E0,-1.579448581E0,1.584260017E-1,-1.087220609E-1
7.912731417E0,6.988966370E-1,-1.322035812E1,-2.504142609E0,7.921466417E0,-1.914331794E0,4.147067964E-1,-3.162240982E-1
7.922713417E0,1.664837952E0,-1.258133698E1,-2.189646606E0,7.931448417E0,-2.226818562E0,5.704793930E-1,-4.959760606E-1
7.932695417E0,1.929786987E0,-1.189142166E1,-1.697619781E0,7.941430417E0,-2.547755957E0,4.422109127E-1,-5.734530687E-1
7.942677417E0,1.394949188E0,-1.168604874E1,-1.568588104E0,7.951413417E0,-2.874415159E0,1.180035099E-1,-5.852282643E-1
7.952660417E0,4.809498596E-1,-1.161749130E1,-1.508862305E0,7.961395417E0,-3.215051889E0,-2.779486179E-1,-5.122829676E-1
7.962642417E0,-2.814147949E-1,-1.170401138E1,-1.099164276E0,7.971377417E0,-3.507245779E0,-6.819543242E-1,-4.166449606E-1
7.972624417E0,-1.094523926E0,-1.184322189E1,-3.941304016E-1,7.981359417E0,-3.698732376E0,-9.660872221E-1,-4.011765122E-1
7.982606417E0,-1.469943237E0,-1.193543015E1,5.548960876E-1,7.991341417E0,-3.717169285E0,-9.913988113E-1,-3.782247603E-1
7.992588417E0,-2.261946259E0,-1.230875381E1,1.206491089E0,8.001323417E0,-3.537205458E0,-9.374442101E-1,-2.730682492E-1
8.002570417E0,-4.114344177E0,-1.290720932E1,1.509461060E0,8.011305417E0,-3.232599020E0,-7.816767693E-1,-1.471145898E-1
8.012552417E0,-6.131998444E0,-1.381357452E1,1.410816193E0,8.021287417E0,-2.883537769E0,-4.095817506E-1,1.713932492E-2
8.022534417E0,-7.840395813E0,-1.495525040E1,1.282682648E0,8.031269417E0,-2.606935501E0,2.312189192E-1,2.426420748E-1
8.032516417E0,-9.208850098E0,-1.596639771E1,1.123862915E0,8.041251417E0,-2.449503660E0,1.013189554E0,4.560206831E-1
8.042498417E0,-9.307794342E0,-1.618015320E1,7.400610352E-1,8.051233417E0,-2.340277910E0,1.632156610E0,5.619542599E-1
8.052480417E0,-7.264543304E0,-1.478026428E1,3.800596619E-1,8.061215417E0,-2.221248388E0,1.948946476E0,5.417062640E-1
8.062462417E0,-4.386328583E0,-1.296603699E1,1.697470093E-1,8.071198417E0,-2.057173252E0,1.824743986E0,4.287210107E-1
8.072445417E0,-1.787882080E0,-1.166808609E1,2.287243652E-1,8.081180417E0,-1.934249401E0,1.425779223E0,3.169095218E-1
8.082427417E0,1.368154907E-1,-1.099882782E1,7.753875732E-2,8.091162417E0,-1.876619697E0,9.230696559E-1,2.556766570E-1
8.092409417E0,8.696914673E-1,-1.066367477E1,-6.143225098E-1,8.101144417E0,-1.848560452E0,3.166995943E-1,1.927051246E-1
8.102391417E0,1.374441833E0,-1.048434769E1,-1.041833496E0,8.111126417E0,-1.861414671E0,-4.517486319E-2,9.968735278E-2
8.112373417E0,1.580712891E0,-1.026684998E1,-1.379980316E0,8.121108417E0,-1.837815404E0,-2.365093976E-1,-4.905525222E-2
8.122355417E0,1.546434174E0,-9.707912292E0,-1.608405304E0,8.131090417E0,-1.740841031E0,-4.563985765E-1,-2.376733124E-1
8.132337417E0,2.004631348E0,-9.346863098E0,-1.397643585E0,8.141072417E0,-1.629988074E0,-6.364538670E-1,-3.841301203E-1
8.142319417E0,1.998344421E0,-9.136400757E0,-1.165775757E0,8.151054417E0,-1.519636273E0,-8.019539714E-1,-4.910599589E-1
8.152301417E0,1.771715698E0,-9.115144958E0,-1.045426025E0,8.161036417E0,-1.427664757E0,-8.994808197E-1,-5.974156857E-1
8.162283417E0,1.913021851E0,-8.863817596E0,-9.202862549E-1,8.171018417E0,-1.318965077E0,-9.054309130E-1,-6.793391705E-1
8.172265417E0,1.617236938E0,-8.501570892E0,-5.911207581E-1,8.181000417E0,-1.218775988E0,-9.378285408E-1,-7.383801341E-1
8.182247417E0,1.163680115E0,-7.989785156E0,-3.510200500E-1,8.190983417E0,-1.122445226E0,-1.025262117E0,-7.623292804E-1
8.192230417E0,4.417314148E-1,-7.381450195E0,-1.707948303E-1,8.200965417E0,-1.008408427E0,-1.135187268E0,-7.667035460E-1
8.202212417E0,-3.601510620E-1,-6.674769745E0,2.992277527E-1,8.210947417E0,-8.946067095E-1,-1.253564358E0,-7.734495997E-1
8.212194417E0,-9.380992126E-1,-5.854325867E0,6.261479187E-1,8.220929417E0,-7.697646618E-1,-1.339223862E0,-8.108033538E-1
8.222176417E0,-1.407073975E0,-4.808600464E0,8.411009216E-1,8.230911417E0,-6.279029250E-1,-1.371491075E0,-8.173044920E-1
8.232158417E0,-1.974843292E0,-3.954925690E0,9.036708069E-1,8.240893417E0,-4.603323340E-1,-1.241203308E0,-7.336391807E-1
8.242140417E0,-2.626288605E0,-3.304827576E0,7.297325134E-1,8.250875417E0,-2.812913954E-1,-1.092562079E0,-6.208508611E-1
8.252122417E0,-3.061583405E0,-2.792293396E0,5.135820007E-1,8.260857417E0,-9.473430365E-2,-8.571053743E-1,-5.198233128E-1
8.262104417E0,-2.930156708E0,-2.264940033E0,-4.071533203E-2,8.270839417E0,1.420335472E-1,-4.775437713E-1,-4.027342796E-1
8.272086417E0,-2.959645386E0,-2.054178314E0,-4.731660461E-1,8.280821292E0,4.203647673E-1,-5.227983370E-2,-2.938645184E-1
8.282068292E0,-2.868484955E0,-2.005080414E0,-9.120533752E-1,8.290803292E0,7.095451355E-1,2.877889872E-1,-2.105514705E-1
8.292050292E0,-2.680026855E0,-2.114652557E0,-1.194216614E0,8.300785292E0,1.005857348E0,4.701726437E-1,-1.502758861E-1
8.302032292E0,-2.509232025E0,-2.383194122E0,-1.122964783E0,8.310767292E0,1.305087924E0,4.938364029E-1,-1.121931225E-1
8.312015292E0,-2.294728088E0,-2.679727478E0,-7.197033691E-1,8.320750292E0,1.596958876E0,4.241158962E-1,-8.763851225E-2
8.321997292E0,-2.098486176E0,-2.903063049E0,-4.435276794E-1,8.330732292E0,1.838720679E0,3.544194400E-1,-5.202774704E-2
8.331979292E0,-2.129771118E0,-3.178639984E0,-6.270460510E-1,8.340714292E0,2.015769482E0,2.681921422E-1,-1.108803693E-2
8.341961292E0,-2.208208008E0,-3.591032410E0,-1.306632843E0,8.350696292E0,2.151760101E0,1.956960559E-1,3.412651271E-2
8.351943292E0,-2.117496643E0,-4.173920288E0,-2.129471741E0,8.360678292E0,2.275765657E0,1.040782630E-1,9.175438434E-2
8.361925292E0,-1.900298309E0,-5.109923859E0,-2.948418732E0,8.370660292E0,2.365619183E0,5.488741398E-2,1.842912138E-1
8.371907292E0,-1.832040253E0,-6.580166473E0,-3.747157745E0,8.380642292E0,2.342044115E0,4.176016152E-2,3.032053411E-1
8.381889292E0,-1.712588654E0,-8.756790161E0,-4.870571594E0,8.390624292E0,2.122648478E0,1.724894494E-1,4.321343899E-1
8.391871292E0,-1.342707825E0,-1.181343384E1,-6.434070282E0,8.400606292E0,1.614811301E0,5.569074750E-1,4.836314321E-1
8.401853292E0,-7.891589355E-1,-1.557795547E1,-8.771309967E0,8.410588292E0,7.950722575E-1,1.065137267E0,4.194141626E-1
8.411835292E0,-5.388793945E-3,-1.975471985E1,-1.247056732E1,8.420570292E0,-2.024852931E-1,9.950950146E-1,2.014407963E-1
8.421817292E0,6.159690857E-1,-2.365949982E1,-1.673295364E1,8.430552292E0,-1.306768060E0,-1.930213720E-1,-2.247813195E-1
8.431800292E0,1.357377319E0,-2.484907608E1,-1.930131271E1,8.440535292E0,-2.057665586E0,-1.832283020E0,-7.661401629E-1
8.441782292E0,3.316802673E0,-2.202025864E1,-1.946686844E1,8.450517292E0,-1.974176645E0,-2.566803455E0,-1.054724097E0
8.451764292E0,4.055965576E0,-1.708262650E1,-1.461964828E1,8.460499292E0,-1.421566486E0,-2.012066364E0,-1.084993601E0
8.461746292E0,2.837050323E0,-1.199261124E1,-8.527167664E0,8.470481292E0,-6.778147817E-1,-9.426859617E-1,-9.975839853E-1
8.471728292E0,2.503244476E0,-7.626790009E0,-4.461023254E0,8.480463292E0,1.208638586E-2,-1.582026184E-1,-8.721467257E-1
8.481710292E0,2.871628418E0,-3.949237518E0,-2.314786377E0,8.490445292E0,5.215237141E-1,2.572287619E-1,-7.050850987E-1
8.491692292E0,2.740201721E0,-1.457519073E0,-1.682800598E0,8.500427292E0,9.034678936E-1,3.165970147E-1,-4.342682660E-1
8.501674292E0,1.304237823E0,-1.510359192E0,-1.404379578E0,8.510409292E0,1.249091864E0,2.823618054E-1,-1.591269076E-1
8.511656292E0,-7.451504517E-1,-3.816463623E0,-7.405101013E-1,8.520391292E0,1.578122377E0,3.796968758E-1,-6.634823978E-2
8.521638292E0,-1.699416046E0,-6.575675812E0,4.080514526E-1,8.530373292E0,1.891688943E0,8.184722662E-1,-7.478413731E-2
8.531620292E0,-1.860331421E0,-9.388925629E0,1.841620331E0,8.540355292E0,2.238077641E0,1.247889757E0,4.151690751E-2
8.541602292E0,-2.841391296E0,-1.279419434E1,3.835174713E0,8.550337292E0,2.420358181E0,1.170637608E0,3.855218887E-1
8.551585292E0,-4.714146881E0,-1.633687729E1,5.111570435E0,8.560320292E0,2.097210646E0,6.440681219E-1,6.339690089E-1
8.561567292E0,-6.263425140E0,-1.850092712E1,3.268453217E0,8.570302292E0,1.146987438E0,-6.132970378E-2,5.305970907E-1
8.571549292E0,-6.007457428E0,-1.878653320E1,-1.639839935E0,8.580284292E0,-3.543248773E-1,-5.992045999E-1,1.517264694E-1
8.581531292E0,-4.474046173E0,-1.758827499E1,-6.678062897E0,8.590266292E0,-1.398125768E0,-7.353850603E-1,-8.707252145E-2
8.591513292E0,-2.734214172E0,-1.469164856E1,-8.209677887E0,8.600248292E0,-1.389392495E0,-7.887987494E-1,-7.004852593E-2
8.601495292E0,-3.199895782E0,-1.142948227E1,-4.092639313E0,8.610230292E0,-8.495754004E-1,-5.104775429E-1,-4.243569821E-2
8.611477292E0,-3.496129761E0,-8.300089874E0,-1.462309113E0,8.620212292E0,-1.335818619E-1,3.335391581E-1,-7.190360688E-3
8.621459292E0,-3.414399719E0,-5.171445923E0,5.977070618E-1,8.630194292E0,6.231967211E-1,1.219530463E0,8.656411618E-2
8.631441292E0,-3.804937592E0,-2.401905212E0,2.259102173E0,8.640176292E0,1.300779939E0,1.835444212E0,2.720921934E-1
8.641423292E0,-3.621119843E0,-4.361929321E-1,3.107986908E0,8.650158292E0,1.736211538E0,2.177031994E0,5.650663972E-1
8.651405292E0,-3.971840515E0,-2.225871277E-1,3.538341980E0,8.660140292E0,1.803122401E0,2.308773994E0,9.261633158E-1
8.661387292E0,-4.357887726E0,-1.827100525E0,3.736080780E0,8.670123292E0,1.594784260E0,2.139962196E0,1.293657780E0
8.671370292E0,-3.958218842E0,-4.252506866E0,3.803590393E0,8.680105292E0,1.244898200E0,1.649242401E0,1.547527075E0
8.681352292E0,-2.932851105E0,-7.261848907E0,4.476740570E0,8.690087292E0,8.664386868E-1,8.668831587E-1,1.577993870E0
8.691334292E0,-1.430724792E0,-1.083596649E1,5.088368683E0,8.700069292E0,6.594559550E-1,-1.058284044E-1,1.390906811E0
8.701316292E0,2.782713318E-1,-1.403975418E1,5.376070404E0,8.710051292E0,7.620162368E-1,-1.072266936E0,1.031673431E0
8.711298292E0,2.538121948E0,-1.619766678E1,4.925507355E0,8.720033292E0,1.208835006E0,-1.753927827E0,5.450555682E-1
8.721280292E0,4.711602173E0,-1.736074814E1,3.398233337E0,8.730015292E0,1.731396437E0,-1.753331661E0,-3.258104995E-2
8.731262292E0,6.367309113E0,-1.776999710E1,9.662406921E-1,8.739997292E0,2.005234718E0,-1.056464672E0,-6.100342870E-1
8.741244292E0,6.819518738E0,-1.641037445E1,-2.158062286E0,8.749979292E0,1.956715226E0,1.056067124E-1,-1.073361039E0
8.751226292E0,5.125641174E0,-1.330014221E1,-4.502187653E0,8.759961292E0,1.693250060E0,1.263790369E0,-1.303589463E0
8.761208292E0,1.954036560E0,-1.140643021E1,-5.132377167E0,8.769943292E0,1.343206167E0,1.868484259E0,-1.287904620E0
8.771190292E0,-1.043031006E0,-1.031205597E1,-5.153483276E0,8.779926292E0,1.105383515E0,1.940405846E0,-1.164956570E0
8.781173292E0,-2.968926086E0,-8.930578766E0,-3.915407867E0,8.789908292E0,1.066120028E0,1.730339408E0,-9.364727139E-1
8.791155292E0,-4.105512543E0,-7.481591949E0,-1.757495270E0,8.799890292E0,1.074360371E0,1.396629095E0,-6.189634800E-1
8.801137292E0,-5.224585419E0,-6.410569153E0,-3.667373657E-2,8.809872292E0,1.010980487E0,1.044146657E0,-3.027218878E-1
8.811119292E0,-5.766608276E0,-6.013444977E0,5.757028198E-1,8.819854292E0,8.653577566E-1,6.534133554E-1,3.824459389E-3
8.821101292E0,-5.357808380E0,-6.159840546E0,7.538323975E-1,8.829836292E0,7.099972963E-1,3.107472360E-1,2.516506612E-1
8.831083292E0,-4.377646637E0,-6.685846710E0,7.363188171E-1,8.839818292E0,6.418840289E-1,1.865486205E-1,4.095630646E-1
8.841065292E0,-2.916085968E0,-7.352709961E0,1.002615051E0,8.849800292E0,7.028463483E-1,3.188402951E-1,4.841134548E-1
8.851047292E0,-1.491348724E0,-8.046068115E0,1.297651520E0,8.859782292E0,8.726782203E-1,6.040400863E-1,4.690479636E-1
8.861029292E0,-9.131011963E-2,-8.493188324E0,1.493594055E0,8.869764292E0,1.020896792E0,9.011607170E-1,4.317572117E-1
8.871011292E0,1.021475830E0,-8.922645264E0,1.297801208E0,8.879746292E0,1.060422897E0,1.081926227E0,4.034526050E-1
8.880993292E0,1.527723083E0,-9.473799133E0,6.545887756E-1,8.889729292E0,1.025389314E0,1.134400606E0,4.068855643E-1
8.890976292E0,1.766476593E0,-9.820627899E0,2.275268555E-2,8.899711292E0,9.422137141E-1,1.075119615E0,3.906498551E-1
8.900958292E0,1.767075348E0,-9.858798523E0,-1.300794983E-1,8.909693292E0,8.593813777E-1,9.159355164E-1,3.807017207E-1
8.910940292E0,1.719624023E0,-9.717642059E0,-1.321751404E-1,8.919675292E0,8.104599118E-1,7.133342624E-1,3.919410706E-1
8.920922292E0,1.460662537E0,-9.452842712E0,1.631607056E-2,8.929657292E0,7.945659757E-1,5.294344425E-1,3.515991867E-1
8.930904292E0,1.084943848E0,-9.318422241E0,9.969268799E-2,8.939639292E0,8.713582158E-1,3.720802665E-1,3.100679815E-1
8.940886292E0,8.416996765E-1,-9.323212280E0,1.811233521E-1,8.949621292E0,9.916257858E-1,2.581959069E-1,3.146346211E-1
8.950868292E0,2.143542480E-1,-9.220675507E0,1.913021851E-1,8.959603292E0,1.085223675E0,1.877161562E-1,2.846165597E-1
8.960850292E0,-1.586700439E-1,-9.524094543E0,-2.490820312E-1,8.969585292E0,1.167590022E0,1.660320759E-1,2.995151579E-1
8.970832292E0,-5.179229736E-1,-9.598789215E0,-5.637277222E-1,8.979567292E0,1.220870256E0,1.931896657E-1,3.430573046E-1
8.980815292E0,-8.643026733E-1,-9.514813843E0,-7.451504517E-1,8.989550292E0,1.213432908E0,2.668202519E-1,3.894402087E-1
8.990797292E0,-9.675878906E-1,-9.379345551E0,-8.869056702E-1,8.999532292E0,1.153034806E0,3.743094206E-1,4.294201136E-1
9.000779292E0,-8.548722839E-1,-9.217232666E0,-9.455836487E-1,9.009514292E0,1.050592303E0,4.635165036E-1,4.535151422E-1
9.010761292E0,-6.357279968E-1,-9.117390289E0,-9.321116638E-1,9.019496292E0,9.410242438E-1,4.435057640E-1,4.846277833E-1
9.020743292E0,-4.282594299E-1,-9.087302856E0,-9.148974609E-1,9.029478292E0,8.356415033E-1,3.380405307E-1,5.175750852E-1
9.030725292E0,-3.571572876E-1,-9.218430176E0,-8.408015442E-1,9.039460292E0,7.275078893E-1,1.889328063E-1,5.137494206E-1
9.040707292E0,-9.565109253E-2,-9.838590546E0,-9.663903809E-1,9.049442292E0,6.453758478E-1,9.065531939E-2,5.228580832E-1
9.050689292E0,-5.014572144E-2,-1.034813095E1,-8.363108826E-1,9.059424292E0,5.592521429E-1,9.206625819E-2,5.028934479E-1
9.060671292E0,1.712438965E-1,-1.109986771E1,-7.354206848E-1,9.069406292E0,4.417826533E-1,1.591139436E-1,4.531776905E-1
9.070653292E0,4.221221924E-1,-1.152228928E1,-6.122268677E-1,9.079388292E0,3.194040060E-1,2.887536883E-1,3.933950365E-1
9.080636292E0,8.524772644E-1,-1.182840271E1,-7.018904114E-1,9.089371292E0,2.075230330E-1,4.188311100E-1,2.842839360E-1
9.090618292E0,1.027463379E0,-1.163844772E1,-6.300398254E-1,9.099353292E0,1.441499293E-1,5.321747065E-1,1.527080834E-1
9.100600292E0,1.160536652E0,-1.146226410E1,-5.800437927E-1,9.109335292E0,1.577302068E-1,6.368898749E-1,8.912960440E-2
9.110582292E0,6.944059753E-1,-1.098071548E1,-2.917433167E-1,9.119317292E0,1.434111893E-1,6.160184145E-1,-6.152975373E-3
9.120564292E0,3.258723450E-1,-1.106334366E1,-4.810995483E-1,9.129299292E0,1.517587155E-1,5.424946547E-1,-3.554727882E-2
9.130546292E0,-8.367599487E-2,-1.089314758E1,-7.427554321E-1,9.139281292E0,1.046548486E-1,4.461412728E-1,-6.704445463E-3
9.140528292E0,-7.295828247E-1,-1.058553726E1,-1.005459137E0,9.149263292E0,1.740152948E-2,3.206277192E-1,6.133516133E-2
9.150510292E0,-8.223898315E-1,-1.055200699E1,-1.596430206E0,9.159245292E0,-1.618241370E-1,1.311238557E-1,1.379393935E-1
9.160492292E0,-8.909472656E-1,-1.060349991E1,-1.955234070E0,9.169227292E0,-3.758718073E-1,-8.252603561E-2,2.327927202E-1
9.170474292E0,-5.686674500E-1,-1.164787811E1,-2.422711945E0,9.179209292E0,-6.110910177E-1,-2.320196629E-1,2.923236787E-1
9.180456292E0,-3.559597778E-1,-1.289328827E1,-2.543211365E0,9.189192292E0,-8.682171106E-1,-2.348431647E-1,2.414116710E-1
9.190439292E0,6.971003723E-1,-1.400981644E1,-2.618953857E0,9.199174292E0,-1.138607025E0,-8.060645312E-2,1.423527300E-1
9.200421292E0,1.735191650E0,-1.383138748E1,-2.330054626E0,9.209156292E0,-1.433213949E0,1.541288197E-1,-2.712953091E-2
9.210403292E0,2.639461212E0,-1.274898834E1,-1.802850952E0,9.219138292E0,-1.774025559E0,3.389095664E-1,-2.482802868E-1
9.220385292E0,3.308270416E0,-1.174382858E1,-1.302142181E0,9.229120292E0,-2.137352943E0,2.067498565E-1,-4.028587341E-1
9.230367292E0,3.047063599E0,-1.162752045E1,-1.258732452E0,9.239102292E0,-2.452310324E0,-1.892451495E-1,-4.901156127E-1
9.240349292E0,1.851499786E0,-1.194051956E1,-1.299597473E0,9.249084292E0,-2.705294609E0,-6.826639771E-1,-5.685476065E-1
9.250331292E0,1.004411316E0,-1.197075668E1,-6.574328613E-1,9.259066292E0,-2.916018724E0,-1.143461704E0,-5.847875476E-1
9.260313292E0,2.885998535E-1,-1.194501022E1,1.062789917E-1,9.269048292E0,-3.096950531E0,-1.524683952E0,-5.560669899E-1
9.270295292E0,-4.324507141E-1,-1.183648590E1,7.387138367E-1,9.279031542E0,-3.339206219E0,-1.584790707E0,-5.521212220E-1
9.280278542E0,-1.298998718E0,-1.178903458E1,5.295986938E-1,9.289013542E0,-3.519616604E0,-1.455743313E0,-5.589306355E-1
9.290260542E0,-2.289189606E0,-1.185025726E1,-3.357518005E-1,9.298995542E0,-3.485386610E0,-1.252527237E0,-4.822007418E-1
9.300242542E0,-3.516487427E0,-1.217208801E1,-4.249662781E-1,9.308977542E0,-3.276843548E0,-9.360461235E-1,-3.280535936E-1
9.310224542E0,-4.773124237E0,-1.325912750E1,-4.400848389E-2,9.318959542E0,-2.994310379E0,-4.503837824E-1,-1.988892108E-1
9.320206542E0,-5.485792236E0,-1.478325806E1,3.558100891E-1,9.328941542E0,-2.715166330E0,2.195095420E-1,-1.160199344E-1
9.330188542E0,-5.678142242E0,-1.596235611E1,9.011260986E-1,9.338923542E0,-2.457598448E0,8.884987831E-1,-9.639935941E-2
9.340170542E0,-4.964875488E0,-1.617955444E1,1.258433075E0,9.348905542E0,-2.181289196E0,1.308204651E0,-1.347236484E-1
9.350152542E0,-3.497327271E0,-1.516212021E1,1.760638733E0,9.358887542E0,-1.948283195E0,1.436146379E0,-2.169516683E-1
9.360134542E0,-2.293829956E0,-1.351943619E1,1.868115234E0,9.368869542E0,-1.760588765E0,1.346109629E0,-3.546921015E-1
9.370117542E0,-1.011296997E0,-1.219214630E1,1.776655426E0,9.378852542E0,-1.663325906E0,1.101166725E0,-4.268288612E-1
9.380099542E0,-2.242337036E-1,-1.154728729E1,1.240620117E0,9.388834542E0,-1.670602083E0,6.214369535E-1,-4.554982781E-1
9.390081542E0,2.803669739E-1,-1.090123077E1,3.523672485E-1,9.398816542E0,-1.788146019E0,6.276437640E-2,-4.595097899E-1
9.400063542E0,8.336164856E-1,-1.026670029E1,-6.472540283E-1,9.408798542E0,-1.909656048E0,-4.941944480E-1,-4.649437964E-1
9.410045542E0,8.533753967E-1,-9.752519531E0,-1.240769806E0,9.418780542E0,-1.949560642E0,-1.135651588E0,-4.924872816E-1
9.420027542E0,7.450007629E-1,-9.433233490E0,-1.127605133E0,9.428762542E0,-1.916808486E0,-1.724335790E0,-5.997336507E-1
9.430009542E0,1.259181519E0,-9.317374420E0,-8.104147339E-1,9.438744542E0,-1.831897378E0,-2.030232668E0,-7.675809860E-1
9.439991542E0,2.164498901E0,-9.513915710E0,-6.066883850E-1,9.448726542E0,-1.780445337E0,-2.080861092E0,-9.443510771E-1
9.449973542E0,2.517764282E0,-9.972112885E0,-7.987390137E-1,9.458708542E0,-1.736500502E0,-1.960976124E0,-1.098000288E0
9.459955542E0,2.522554321E0,-1.023466690E1,-9.665400696E-1,9.468690542E0,-1.681390047E0,-1.856029749E0,-1.249956727E0
9.469938542E0,2.591710510E0,-1.005369324E1,-7.303312683E-1,9.478673542E0,-1.634517908E0,-1.775566578E0,-1.329503775E0
9.479920542E0,1.982776794E0,-9.526639252E0,-4.309538269E-1,9.488655542E0,-1.574726582E0,-1.706182003E0,-1.352459788E0
9.489902542E0,5.005590820E-1,-8.722212067E0,6.331832886E-2,9.498637542E0,-1.502034068E0,-1.793956995E0,-1.360274553E0
9.499884542E0,-6.724017334E-1,-7.716752930E0,2.233355713E-1,9.508619542E0,-1.365696073E0,-1.775025129E0,-1.295903563E0
9.509866542E0,-1.743723907E0,-6.731352081E0,2.842588806E-1,9.518601542E0,-1.168949485E0,-1.755541682E0,-1.243636370E0
9.519848542E0,-2.350861359E0,-5.871540070E0,5.367837524E-1,9.528583542E0,-9.422640204E-1,-1.530040503E0,-1.166548371E0
9.529830542E0,-2.654579773E0,-4.978946228E0,5.860313416E-1,9.538565542E0,-7.281773090E-1,-1.365533233E0,-1.100794911E0
9.539812542E0,-2.881058807E0,-4.313879242E0,5.108876038E-1,9.548547542E0,-5.207845569E-1,-1.106387496E0,-9.941454530E-1
9.549794542E0,-2.929557953E0,-3.876039734E0,4.243675232E-1,9.558529542E0,-3.176876307E-1,-8.902911544E-1,-8.673866987E-1
9.559776542E0,-3.231480103E0,-3.819158020E0,5.887257385E-1,9.568512542E0,-1.254966259E-1,-7.427962422E-1,-7.677184343E-1
9.569759542E0,-3.099155273E0,-3.731739807E0,4.665797424E-1,9.578494542E0,6.782066822E-2,-6.018580198E-1,-6.960621476E-1
9.579741542E0,-2.987637177E0,-3.789669342E0,2.772235107E-1,9.588476542E0,2.839179635E-1,-4.266122282E-1,-6.268410683E-1
9.589723542E0,-2.985391846E0,-3.923491058E0,8.996292114E-2,9.598458542E0,5.242730379E-1,-2.904879451E-1,-5.439970493E-1
9.599705542E0,-3.049757996E0,-4.097129974E0,-8.996292114E-2,9.608440542E0,7.799806595E-1,-1.954697073E-1,-4.444141090E-1
9.609687542E0,-3.020718384E0,-4.124073944E0,-4.381388855E-1,9.618422542E0,1.025813699E0,-1.080482453E-1,-3.377310932E-1
9.619669542E0,-2.851570129E0,-4.027524719E0,-8.913963318E-1,9.628404542E0,1.222088814E0,-4.147379100E-2,-2.248977870E-1
9.629651542E0,-2.639610901E0,-3.879781952E0,-1.373693390E0,9.638386542E0,1.361028552E0,-1.136491424E-3,-9.117595106E-2
9.639633542E0,-2.395019531E0,-3.807931366E0,-2.000440063E0,9.648368542E0,1.480710506E0,3.567920625E-2,4.980236292E-2
9.649615542E0,-2.147135010E0,-3.857777710E0,-2.511327667E0,9.658350542E0,1.626813412E0,4.693745077E-2,2.040830106E-1
9.659597542E0,-1.921554108E0,-4.135001221E0,-2.848576355E0,9.668333542E0,1.805122852E0,6.097570807E-2,3.572426438E-1
9.669580542E0,-1.695673828E0,-4.758005676E0,-2.913092194E0,9.678315542E0,1.982164025E0,6.090966612E-2,4.723367691E-1
9.679562542E0,-1.315314789E0,-5.760021973E0,-2.994373169E0,9.688297542E0,2.115135908E0,5.609446019E-2,5.368402004E-1
9.689544542E0,-7.625143433E-1,-7.164551239E0,-3.392245789E0,9.698279542E0,2.166127205E0,5.161955208E-2,5.340489745E-1
9.699526542E0,-6.331832886E-2,-8.922345886E0,-4.260140991E0,9.708261542E0,2.102361441E0,6.575892121E-2,5.194793940E-1
9.709508542E0,3.028202820E-1,-1.115674942E1,-5.703589325E0,9.718243542E0,1.850142121E0,2.113312669E-2,5.329965353E-1
9.719490542E0,4.340972900E-3,-1.368948257E1,-7.710466003E0,9.728225542E0,1.306236982E0,-2.874698043E-1,5.324791074E-1
9.729472542E0,-3.159928894E-1,-1.588960739E1,-1.041114990E1,9.738207542E0,4.472690523E-1,-9.292229414E-1,4.640827179E-1
9.739454542E0,2.469863892E-2,-1.744427444E1,-1.363454681E1,9.748189542E0,-6.451064348E-1,-1.632935286E0,2.999064922E-1
9.749436542E0,7.490423584E-1,-1.857622055E1,-1.652982605E1,9.758171542E0,-1.536944747E0,-1.786999702E0,-3.504594788E-2
9.759418542E0,2.678380280E0,-1.868743927E1,-1.768527328E1,9.768154542E0,-1.600073934E0,-9.488805532E-1,-4.470587969E-1
9.769401542E0,4.939727783E0,-1.723396179E1,-1.304282730E1,9.778136542E0,-1.004410505E0,2.985952497E-1,-7.870776057E-1
9.779383542E0,6.372248840E0,-1.413301025E1,-5.860014038E0,9.788118542E0,-1.819013655E-1,1.210876107E0,-9.726426005E-1
9.789365542E0,6.679410095E0,-1.023391846E1,-1.732347565E0,9.798100542E0,4.589923322E-1,1.245056987E0,-9.803713560E-1
9.799347542E0,6.101911011E0,-6.466552734E0,-7.325765991E-1,9.808082542E0,8.611946702E-1,7.728559971E-1,-8.521669507E-1
9.809329542E0,4.932393036E0,-3.903283081E0,-1.839375000E0,9.818064542E0,1.193466425E0,4.432179034E-1,-6.787368655E-1
9.819311542E0,3.273842010E0,-3.537593536E0,-2.594853973E0,9.828046542E0,1.557998896E0,3.744792938E-1,-4.664240479E-1
9.829293542E0,1.266366577E0,-5.164859619E0,-2.064806213E0,9.838028542E0,1.923137903E0,3.271413445E-1,-2.947662771E-1
9.839275542E0,-1.948947144E-1,-7.113357697E0,-1.059945831E0,9.848010542E0,2.260274887E0,1.679454744E-1,-2.438714802E-1
9.849257542E0,-4.381388855E-1,-8.526269531E0,6.900650024E-2,9.857993542E0,2.514486551E0,1.661078930E-1,-1.739834696E-1
9.859240542E0,-8.352630615E-1,-9.976453857E0,1.322948914E0,9.867975542E0,2.674167395E0,3.702946603E-1,1.176611409E-1
9.869222542E0,-2.810705109E0,-1.279000305E1,2.604583740E0,9.877957542E0,2.658925056E0,4.617265761E-1,5.901735425E-1
9.879204542E0,-5.544619904E0,-1.703727081E1,3.290906525E0,9.887939542E0,2.206789970E0,3.101806343E-1,8.107019663E-1
9.889186542E0,-6.968459015E0,-2.092259125E1,1.918111267E0,9.897921542E0,1.037560701E0,-3.915940225E-1,5.495252609E-1
9.899168542E0,-6.308182068E0,-2.307032501E1,-2.552042999E0,9.907903542E0,-7.326239944E-1,-1.110381961E0,3.196972981E-2
9.909150542E0,-3.661086731E0,-2.222099121E1,-9.677675171E0,9.917885542E0,-1.635128975E0,-8.813098669E-1,-2.578524947E-1
9.919132542E0,-1.812880096E0,-1.761626678E1,-9.080117798E0,9.927867542E0,-1.542651772E0,-4.273845255E-1,-3.044365942E-1
9.929114542E0,-2.618953857E0,-1.222148529E1,-1.596280518E0,9.937849542E0,-1.034033179E0,-1.626801491E-1,-2.892999947E-1
9.939096542E0,-3.182232513E0,-7.880512390E0,7.225474548E-1,9.947831542E0,-4.113464952E-1,-1.136368290E-1,-2.101775855E-1
9.949078542E0,-3.703598328E0,-4.056863708E0,1.367256775E0,9.957814542E0,1.696857512E-1,1.422118396E-3,1.123202965E-2
9.959061542E0,-5.098846893E0,-7.045848083E-1,1.844913483E0,9.967796542E0,6.521799564E-1,2.022854388E-1,3.668834269E-1
9.969043542E0,-6.171665955E0,1.740131378E0,2.261946259E0,9.977778542E0,1.003681779E0,4.324060082E-1,7.121952772E-1
9.979025542E0,-6.346053314E0,2.376907196E0,2.988684998E0,9.987760542E0,1.192251205E0,7.308701277E-1,9.630029202E-1
9.989007542E0,-5.250331879E0,1.190773773E0,4.002826080E0,9.997742542E0,1.225556254E0,9.438686967E-1,1.250712156E0
9.998989542E0,-4.186943207E0,-1.572330322E0,4.697980499E0,1.000772454E1,1.168567419E0,1.055538774E0,1.574543595E0
1.000897154E1,-3.194357300E0,-4.787045288E0,5.561534729E0,1.001770654E1,1.028432846E0,7.982739806E-1,1.763583064E0
1.001895354E1,-1.942211151E0,-9.057664490E0,6.173761597E0,1.002768854E1,8.821967244E-1,1.297020614E-1,1.644765377E0
1.002893554E1,-2.227368164E-1,-1.388153320E1,6.327791290E0,1.003767054E1,8.741866946E-1,-5.197926164E-1,1.204759240E0
1.003891754E1,2.150128784E0,-1.738784180E1,5.938301239E0,1.004765254E1,1.254147172E0,-9.609206319E-1,6.114429832E-1
1.004890054E1,4.332740021E0,-1.889460846E1,4.816234589E0,1.005763554E1,1.947445989E0,-9.808688164E-1,-2.053127065E-2
1.005888254E1,6.079607391E0,-1.952449860E1,2.792293396E0,1.006761754E1,2.459316492E0,-3.562459052E-1,-6.784681082E-1
1.006886454E1,6.887776794E0,-1.830767899E1,-3.893403625E-1,1.007759954E1,2.495956421E0,5.533956289E-1,-1.257153034E0
1.007884654E1,5.895490265E0,-1.473011856E1,-3.911066895E0,1.008758154E1,2.120616198E0,1.315778613E0,-1.568353891E0
1.008882854E1,2.668351135E0,-1.142514130E1,-6.161337433E0,1.009756354E1,1.558974504E0,1.648719549E0,-1.563553333E0
