"time_acc","acc_x","acc_y","acc_z","time_gyro","gyro_x","gyro_y","gyro_z"
2.776433335E-2,1.034947815E0,-5.529201965E0,-2.153571625E0,3.152933333E-2,-1.800069928E0,-2.073803902E0,-4.537762403E-1
3.780833335E-2,6.444099426E-1,-4.801864471E0,-2.271077271E0,4.157333332E-2,-1.695787787E0,-2.002416372E0,-4.253949225E-1
4.785233334E-2,9.520202637E-2,-4.160298615E0,-2.241289215E0,5.161733332E-2,-1.485898137E0,-1.866481423E0,-4.028389156E-1
5.789533333E-2,-4.960684204E-1,-3.616030426E0,-2.126178589E0,6.166033336E-2,-1.184103608E0,-1.646981716E0,-4.128177762E-1
6.793933333E-2,-1.051712952E0,-3.234324188E0,-1.999092865E0,7.170433336E-2,-8.036641479E-1,-1.313680768E0,-4.740042090E-1
7.798333332E-2,-1.549128571E0,-3.112178192E0,-2.048490143E0,8.174833335E-2,-3.976061642E-1,-9.735990763E-1,-5.637487173E-1
8.802733332E-2,-1.924547882E0,-3.305725708E0,-2.359094238E0,9.179233335E-2,-1.685525477E-2,-7.307419181E-1,-6.195008159E-1
9.807033336E-2,-2.227218475E0,-3.834875336E0,-2.924767914E0,1.018353333E-1,3.448941410E-1,-6.360431314E-1,-6.081693172E-1
1.081143334E-1,-2.409239960E0,-4.473746796E0,-3.562591553E0,1.118793333E-1,6.431338787E-1,-5.371819735E-1,-5.590983629E-1
1.181583334E-1,-2.497556305E0,-4.975653076E0,-4.157753906E0,1.219233333E-1,8.126166463E-1,-3.242076039E-1,-4.960440099E-1
1.282013333E-1,-2.459834747E0,-5.521418152E0,-4.655019836E0,1.319663333E-1,8.582291603E-1,-1.865628213E-1,-4.204838276E-1
1.382453333E-1,-1.887874146E0,-5.959856415E0,-5.402565308E0,1.420103333E-1,7.617614865E-1,-5.376376957E-2,-3.381689787E-1
1.482893333E-1,-1.277144165E0,-6.381230164E0,-6.112987976E0,1.520543334E-1,5.607387424E-1,3.040047288E-1,-2.208803445E-1
1.583333333E-1,-1.228345642E0,-7.020999756E0,-6.314468994E0,1.620983334E-1,3.237078488E-1,6.972574592E-1,-1.012777761E-1
1.683763333E-1,-1.387913818E0,-8.212971039E0,-6.550528107E0,1.721413333E-1,1.657357812E-1,9.784258008E-1,-6.157091819E-3
1.784203333E-1,-1.698966980E0,-1.012210098E1,-6.268813934E0,1.821853333E-1,8.514691889E-2,8.819591999E-1,7.835326344E-2
1.884643334E-1,-2.535876617E0,-1.267189865E1,-5.671256561E0,1.922293333E-1,-2.719364874E-2,4.807187319E-1,6.995254755E-2
1.985083334E-1,-3.193758545E0,-1.541644135E1,-5.411846008E0,2.022733333E-1,-8.427717537E-2,1.326118708E-1,-1.844042912E-2
2.085513333E-1,-3.096760254E0,-1.683309540E1,-5.363496552E0,2.123163333E-1,-9.501893818E-2,-1.616219580E-1,-3.811658174E-2
2.185953333E-1,-2.627186737E0,-1.603974518E1,-6.149661713E0,2.223603333E-1,-2.926090062E-1,-1.776936054E-1,-2.003131993E-2
2.286393333E-1,-3.076701965E0,-1.417252808E1,-8.635841675E0,2.324043333E-1,-8.031727076E-1,4.517177120E-2,-1.266057137E-2
2.386823333E-1,-3.268153839E0,-1.298849030E1,-1.102292770E1,2.424473334E-1,-1.252429366E0,2.151259184E-1,3.514077514E-2
2.487263333E-1,-3.149001617E0,-1.293460236E1,-9.965825958E0,2.524913333E-1,-1.353437543E0,3.212559223E-1,9.970036149E-2
2.587703333E-1,-2.613115997E0,-1.315105225E1,-6.902146912E0,2.625353333E-1,-1.186325788E0,7.096334696E-1,1.888860762E-2
2.688143333E-1,-8.646020508E-1,-1.404499329E1,-3.439996490E0,2.725793333E-1,-8.739542961E-1,1.028430223E0,-1.123301834E-1
2.788573334E-1,-1.083446960E0,-1.471275467E1,-6.487509155E-1,2.826223333E-1,-6.325044036E-1,9.279170036E-1,-1.463677734E-1
2.889013333E-1,-3.623664551E0,-1.493474304E1,-1.814975739E0,2.926663333E-1,-1.788815260E-1,5.142378807E-1,-1.022339389E-1
2.989453333E-1,-5.070256348E0,-1.429407532E1,-1.794917450E0,3.027103333E-1,2.248105407E-1,1.397784799E-1,-5.306718871E-2
3.089883333E-1,-5.811814270E0,-1.160761185E1,-1.438508606E0,3.127533334E-1,3.720947504E-1,-1.389075965E-1,2.066311613E-2
3.190323333E-1,-5.950426025E0,-8.367000732E0,-2.309846649E0,3.227973334E-1,4.148467481E-1,-4.766077921E-2,1.291264743E-1
3.290763333E-1,-5.685327301E0,-6.354884949E0,-2.422562256E0,3.328413334E-1,3.711827397E-1,1.340433210E-1,2.255554646E-1
3.391203333E-1,-5.186714172E0,-5.614225159E0,-2.496957550E0,3.428853333E-1,3.685382307E-1,6.420165300E-2,3.365416229E-1
3.491633334E-1,-4.385580139E0,-5.400469666E0,-2.128723297E0,3.529283333E-1,4.740974903E-1,-3.036128730E-2,4.150621593E-1
3.592073334E-1,-3.042123871E0,-5.393883362E0,-1.030157776E0,3.629723333E-1,7.208252549E-1,-5.827840418E-2,5.087039471E-1
3.692513334E-1,-1.927541656E0,-5.869294739E0,6.724017334E-1,3.730163333E-1,1.045381188E0,-6.043635309E-2,5.401991606E-1
3.792953333E-1,-7.044351196E-1,-6.347699890E0,2.195185089E0,3.830603333E-1,1.326973915E0,-8.347216249E-2,4.853671193E-1
3.893383333E-1,6.108796692E-1,-6.889722748E0,2.620301056E0,3.931033333E-1,1.535088181E0,-9.807480872E-2,4.303922653E-1
3.993823333E-1,1.021475830E0,-7.901917877E0,2.061363373E0,4.031473334E-1,1.648225427E0,-6.623006612E-2,4.732763469E-1
4.094263333E-1,5.472619629E-1,-9.062155151E0,8.478369141E-1,4.131913334E-1,1.632917881E0,8.666764200E-2,5.629580021E-1
4.194703333E-1,-3.884422302E-1,-9.888287201E0,-7.731422424E-1,4.232353334E-1,1.509590030E0,1.810820252E-1,7.172442675E-1
4.295133333E-1,-2.258204041E0,-1.049781967E1,-2.126178589E0,4.332783333E-1,1.358972788E0,1.422088444E-1,9.077869654E-1
4.395573334E-1,-4.047133942E0,-1.039767792E1,-2.369273071E0,4.433223333E-1,1.292196751E0,7.274509221E-2,1.054343939E0
4.496020000E-1,-5.057532806E0,-9.912686462E0,-1.872306519E0,4.533670000E-1,1.328398824E0,3.716873750E-2,1.058076262E0
4.596450000E-1,-5.124593353E0,-9.424401855E0,-1.299896851E0,4.634100000E-1,1.405400157E0,2.628519759E-2,9.173069596E-1
4.696890000E-1,-4.323758698E0,-8.750054169E0,-1.081351318E0,4.734540000E-1,1.453177214E0,5.762156472E-2,6.961013079E-1
4.797330000E-1,-3.569028168E0,-8.040529633E0,-1.149759064E0,4.834980000E-1,1.479256034E0,1.425183564E-1,5.175520182E-1
4.897770000E-1,-3.182082825E0,-7.453450470E0,-1.312021637E0,4.935420000E-1,1.487118602E0,2.568597496E-1,3.674339950E-1
4.998200000E-1,-2.965932312E0,-7.001390533E0,-1.539847870E0,5.035850000E-1,1.462019086E0,3.676094115E-1,2.471888214E-1
5.098640000E-1,-2.819387054E0,-6.698719940E0,-1.719624023E0,5.136290000E-1,1.359585404E0,4.176234305E-1,1.475512236E-1
5.199080000E-1,-2.483036499E0,-6.773564301E0,-2.049238586E0,5.236730000E-1,1.226893663E0,4.994700849E-1,1.000729129E-1
5.299510000E-1,-2.428400116E0,-7.000043335E0,-2.092199249E0,5.337160000E-1,1.094934583E0,5.603844523E-1,7.016731054E-2
5.399950000E-1,-2.233206024E0,-7.063810730E0,-2.146087189E0,5.437600000E-1,9.932696819E-1,5.553838611E-1,6.668869406E-2
5.500390000E-1,-1.980980530E0,-7.086862793E0,-1.827399902E0,5.538040000E-1,9.283309579E-1,5.006681085E-1,9.957696497E-2
5.600830000E-1,-1.855990448E0,-7.299570465E0,-1.509461060E0,5.638480000E-1,9.348801970E-1,4.588359594E-1,1.490489244E-1
5.701260000E-1,-1.691183167E0,-7.675139465E0,-1.158291321E0,5.738910000E-1,1.003421903E0,4.210364819E-1,2.193058133E-1
5.801700000E-1,-1.635199585E0,-8.180787964E0,-8.545729065E-1,5.839350000E-1,1.082081318E0,3.664704561E-1,2.878403962E-1
5.902140000E-1,-1.480571136E0,-8.606352997E0,-8.713380432E-1,5.939790000E-1,1.121520400E0,3.084412813E-1,3.508738577E-1
6.002580000E-1,-1.401685181E0,-9.050180054E0,-1.188827820E0,6.040230000E-1,1.096674800E0,2.452687025E-1,4.139145911E-1
6.103010000E-1,-1.336121521E0,-9.301058350E0,-1.729653168E0,6.140660000E-1,9.958459735E-1,1.896942109E-1,4.888486564E-1
6.203450000E-1,-1.309177551E0,-9.477691040E0,-2.375559998E0,6.241100000E-1,8.563138843E-1,1.662983298E-1,5.639128089E-1
6.303890000E-1,-1.287472687E0,-9.585167542E0,-2.872526550E0,6.341540000E-1,7.229316235E-1,2.112120092E-1,6.477262378E-1
6.404320000E-1,-1.205293579E0,-9.517657928E0,-2.769989777E0,6.441970000E-1,6.479188800E-1,3.182324767E-1,7.317460179E-1
6.504760000E-1,-1.182840271E0,-9.164093170E0,-1.967658234E0,6.542410000E-1,5.923376083E-1,3.023853004E-1,8.031983376E-1
6.605200000E-1,-1.296903076E0,-8.815617828E0,-1.598675537E0,6.642850000E-1,5.301277637E-1,2.502006590E-1,8.630139828E-1
6.705640000E-1,-1.558259583E0,-8.635242920E0,-1.583107910E0,6.743290000E-1,5.176829100E-1,1.955587864E-1,9.050925374E-1
6.806070000E-1,-1.910327454E0,-8.692124634E0,-1.647773438E0,6.843720000E-1,5.241019130E-1,1.956938058E-1,8.967179656E-1
6.906510000E-1,-2.275567932E0,-9.058712311E0,-1.899100800E0,6.944160000E-1,5.577465296E-1,2.405899763E-1,8.538904786E-1
7.006950000E-1,-2.567460938E0,-9.579629059E0,-2.371817780E0,7.044600000E-1,5.751910210E-1,3.334991336E-1,7.905863523E-1
7.107390000E-1,-2.421514435E0,-1.017958145E1,-2.742896118E0,7.145040000E-1,5.581451058E-1,3.764834702E-1,6.993888617E-1
7.207820000E-1,-1.550026703E0,-1.090901459E1,-2.750829620E0,7.245470000E-1,5.177971721E-1,2.965428531E-1,5.549643040E-1
7.308260000E-1,-2.418969727E-1,-1.140807678E1,-2.604284363E0,7.345910000E-1,4.748314321E-1,2.009860128E-1,3.733584285E-1
7.408700000E-1,9.099577332E-1,-1.141990219E1,-2.731968842E0,7.446350000E-1,4.511929452E-1,1.157352850E-1,1.882016212E-1
7.509130000E-1,1.641037445E0,-1.111094467E1,-2.952011261E0,7.546780000E-1,4.431015551E-1,8.690644987E-3,2.924675122E-2
7.609570000E-1,1.780247955E0,-1.070828201E1,-2.936593323E0,7.647220000E-1,4.313327968E-1,-1.253803372E-1,-1.354556382E-1
7.710010000E-1,1.403631134E0,-1.075902649E1,-2.675236816E0,7.747660000E-1,3.315601349E-1,-3.406553864E-1,-3.007588685E-1
7.810450000E-1,2.883004761E-1,-1.134969818E1,-2.350112915E0,7.848100000E-1,1.922003776E-1,-5.367032290E-1,-4.151714742E-1
7.910880000E-1,-1.402733002E0,-1.218750595E1,-2.340233459E0,7.948530000E-1,9.776809067E-2,-5.425966978E-1,-4.700812995E-1
8.011320000E-1,-2.816393280E0,-1.291199936E1,-2.011517029E0,8.048970000E-1,-1.224803505E-3,-4.615237415E-1,-5.709493756E-1
8.111760000E-1,-3.746409302E0,-1.305150925E1,-1.754501495E0,8.149410000E-1,-1.186485142E-1,-2.720288038E-1,-6.456825137E-1
8.212190000E-1,-4.182751923E0,-1.280093033E1,-1.349294128E0,8.249840000E-1,-2.742540836E-1,-1.902311593E-1,-6.796527505E-1
8.312630000E-1,-4.269870758E0,-1.238479568E1,-3.405418396E-1,8.350280000E-1,-4.317173362E-1,-2.085094452E-1,-6.949785352E-1
8.413070000E-1,-4.320315857E0,-1.184367096E1,6.743476868E-1,8.450720000E-1,-6.532579660E-1,-3.250381947E-1,-7.364847064E-1
8.513510000E-1,-3.856131134E0,-1.157902130E1,1.230141907E0,8.551160000E-1,-9.768584967E-1,-3.414385319E-1,-8.248858452E-1
8.613940000E-1,-3.584595795E0,-1.124446701E1,9.521699524E-1,8.651590000E-1,-1.218345284E0,-3.111528158E-1,-9.563032389E-1
8.714380000E-1,-3.769311676E0,-1.095317276E1,1.205443268E0,8.752030000E-1,-1.408427000E0,-2.029437125E-1,-1.103404284E0
8.814820000E-1,-4.423900452E0,-1.069151688E1,8.292755127E-1,8.852470000E-1,-1.634220958E0,-6.014128029E-2,-1.203497291E0
8.915260000E-1,-5.081782379E0,-1.069196594E1,-1.752854919E-1,8.952910000E-1,-1.832717419E0,6.693150848E-2,-1.273696184E0
9.015690000E-1,-5.508395233E0,-1.044961990E1,-9.035211182E-1,9.053340000E-1,-1.980927348E0,2.711504400E-1,-1.343097687E0
9.116130000E-1,-5.955365753E0,-1.027059219E1,-1.509011993E0,9.153780000E-1,-2.042543173E0,5.721108317E-1,-1.309319139E0
9.216570000E-1,-6.959777069E0,-1.139849670E1,-1.958527222E0,9.254220000E-1,-1.969251871E0,8.213030696E-1,-1.136070371E0
9.317000000E-1,-7.996820526E0,-1.261022690E1,-1.947599945E0,9.354650000E-1,-1.781389117E0,1.035647631E0,-8.555366993E-1
9.417440000E-1,-9.033564606E0,-1.306078995E1,-1.606159973E0,9.455090000E-1,-1.531165719E0,1.298722148E0,-5.140848160E-1
9.517880000E-1,-9.603579254E0,-1.281080978E1,-1.177002411E0,9.555530000E-1,-1.267999649E0,1.593451738E0,-2.083190084E-1
9.618320000E-1,-9.099577332E0,-1.190130112E1,-6.529421997E-1,9.655970000E-1,-1.009261847E0,1.771629930E0,-5.325512588E-2
9.718750000E-1,-8.083639984E0,-1.049287994E1,-1.896556091E-1,9.756400000E-1,-8.105943203E-1,1.787134409E0,-1.512858365E-2
9.819190000E-1,-7.320526886E0,-9.044791260E0,1.869612122E-1,9.856840000E-1,-6.783856750E-1,1.519711494E0,1.372236758E-1
9.919630000E-1,-6.552174683E0,-8.085585938E0,4.754113770E-1,9.957280000E-1,-6.250821352E-1,1.205474138E0,4.394528568E-1
1.002006000E0,-5.198090515E0,-7.751780090E0,3.396437073E-1,1.005771000E0,-6.125727892E-1,9.794582725E-1,5.513077378E-1
1.012050000E0,-2.753374329E0,-7.756869507E0,-9.325607300E-2,1.015815000E0,-5.609597564E-1,7.454926372E-1,4.477716684E-1
1.022094000E0,-4.240681458E-1,-7.974666595E0,-6.068380737E-1,1.025859000E0,-5.430142879E-1,5.216302872E-1,3.807880878E-1
1.032138000E0,-1.347198486E-2,-8.116122437E0,-1.399589539E0,1.035903000E0,-6.733335853E-1,3.436676264E-1,3.744306564E-1
1.042181000E0,-1.666035461E-1,-7.823480988E0,-2.740950165E0,1.045946000E0,-9.270929098E-1,1.262471527E-1,4.087577462E-1
1.052225000E0,-3.297642517E-1,-7.314090271E0,-3.725901947E0,1.055990000E0,-1.138220072E0,-2.228879035E-1,4.072866440E-1
1.062269000E0,-8.652008057E-2,-7.046895905E0,-3.342998199E0,1.066034000E0,-1.307499051E0,-5.834378004E-1,3.293098211E-1
1.072313000E0,5.198689270E-1,-6.997049561E0,-2.747237091E0,1.076078000E0,-1.455875158E0,-8.892232776E-1,1.831223965E-1
1.082356000E0,1.204096069E0,-7.061715088E0,-2.362537079E0,1.086121000E0,-1.592157602E0,-1.191831946E0,-2.946763113E-2
1.092400000E0,1.775757294E0,-7.052733765E0,-2.532733154E0,1.096165000E0,-1.722597122E0,-1.438688755E0,-2.390106916E-1
1.102444000E0,2.013013916E0,-6.718029785E0,-2.803819427E0,1.106209000E0,-1.783569098E0,-1.584524989E0,-3.365087509E-1
1.112487000E0,1.402733002E0,-6.315516815E0,-2.852019196E0,1.116252000E0,-1.771998882E0,-1.621434808E0,-3.318944573E-1
1.122531000E0,7.014413452E-1,-5.645659790E0,-3.054098969E0,1.126296000E0,-1.646599889E0,-1.535318613E0,-2.786813080E-1
1.132575000E0,-9.654922485E-2,-4.863386536E0,-3.071163483E0,1.136340000E0,-1.395100117E0,-1.242208362E0,-2.742485702E-1
1.142619000E0,-9.324110413E-1,-4.359534302E0,-2.901416473E0,1.146384000E0,-1.045642495E0,-8.519378901E-1,-3.349425197E-1
1.152662000E0,-1.614392853E0,-3.964206390E0,-2.771486664E0,1.156427000E0,-7.025835514E-1,-5.526864529E-1,-4.154347479E-1
1.162706000E0,-2.092648315E0,-3.735482025E0,-2.918630676E0,1.166471000E0,-3.912011385E-1,-4.360309839E-1,-4.593057930E-1
1.172750000E0,-2.523901520E0,-3.798950043E0,-3.077151031E0,1.176515000E0,-1.044986472E-1,-4.944157302E-1,-4.459856153E-1
1.182793000E0,-2.677781525E0,-4.087699585E0,-3.220253448E0,1.186558000E0,1.644476056E-1,-5.978776813E-1,-4.100044370E-1
1.192837000E0,-2.504142609E0,-4.389172668E0,-3.472778320E0,1.196602000E0,3.880325258E-1,-6.670140028E-1,-4.085163176E-1
1.202881000E0,-1.764380951E0,-4.370012512E0,-4.092339935E0,1.206646000E0,5.645292401E-1,-6.662776470E-1,-4.567110240E-1
1.212925000E0,-7.542814636E-1,-3.970493317E0,-4.763394470E0,1.216690000E0,7.672422528E-1,-5.004620552E-1,-4.588653743E-1
1.222968000E0,-4.221221924E-1,-4.061803436E0,-5.064418488E0,1.226733000E0,8.622883558E-1,-1.900575459E-1,-4.114762843E-1
1.233012000E0,-4.290078735E-1,-4.959337006E0,-5.892646179E0,1.236777000E0,7.837365270E-1,2.837712765E-1,-3.947481811E-1
1.243056000E0,-1.803749084E-1,-5.842350769E0,-6.909331970E0,1.246821000E0,6.151140928E-1,9.381221533E-1,-4.173682630E-1
1.253099000E0,-6.900650024E-2,-6.872807922E0,-7.293882294E0,1.256864000E0,5.063818097E-1,1.310899138E0,-4.276984930E-1
1.263143000E0,-3.583547974E-1,-8.738228760E0,-6.721472626E0,1.266908000E0,3.734934926E-1,1.100865483E0,-3.501094282E-1
1.273187000E0,-1.764830017E0,-1.204889420E1,-6.298601990E0,1.276952000E0,-1.078406442E-2,6.025569439E-1,-3.528821170E-1
1.283231000E0,-3.323688354E0,-1.642773834E1,-7.521858215E0,1.286996000E0,-2.307590246E-1,1.212347671E-1,-4.193831086E-1
1.293274000E0,-4.292024689E0,-2.000604721E1,-7.607779541E0,1.297039000E0,-1.991676092E-1,-3.175353706E-1,-3.508309424E-1
1.303318000E0,-4.877307587E0,-1.908381500E1,-6.903494110E0,1.307083000E0,-3.185946643E-1,-5.383769870E-1,-1.738622934E-1
1.313362000E0,-4.653223572E0,-1.490345810E1,-8.620573425E0,1.317127000E0,-5.784294605E-1,-5.487009287E-1,-7.407348603E-2
1.323406000E0,-2.622845764E0,-1.043495041E1,-1.022388931E1,1.327171000E0,-8.024260998E-1,-4.673594832E-1,3.641018178E-3
1.333449000E0,-8.723858643E-1,-6.949298859E0,-1.002285736E1,1.337214000E0,-9.349175096E-1,-1.888816357E-1,1.402760297E-1
1.343493000E0,-7.655081177E-1,-5.970035248E0,-8.113278351E0,1.347258000E0,-8.102807999E-1,-2.436166815E-2,1.737447679E-1
1.353537000E0,-8.532257080E-1,-7.176526337E0,-4.908742218E0,1.357302000E0,-5.708075166E-1,-7.620855421E-2,1.835492402E-1
1.363580000E0,-1.118174744E0,-9.634415131E0,-4.377496948E0,1.367345000E0,-5.426107645E-1,9.963624179E-2,2.496789992E-1
1.373624000E0,-2.172881470E0,-1.259690460E1,-5.284311218E0,1.377389000E0,-6.178192496E-1,4.819290340E-1,2.908570468E-1
1.383668000E0,-3.371289368E0,-1.420545959E1,-4.211342468E0,1.387433000E0,-4.444925189E-1,4.770559967E-1,2.792541981E-1
1.393712000E0,-5.207221527E0,-1.452175186E1,-2.187850342E0,1.397477000E0,-1.099581346E-1,3.313531280E-1,2.586292028E-1
1.403755000E0,-6.911726990E0,-1.401879776E1,-8.023315430E-1,1.407520000E0,1.966537386E-1,1.231170967E-1,2.735381126E-1
1.413799000E0,-7.549700317E0,-1.276919632E1,-7.261399841E-1,1.417564000E0,3.931937516E-1,-3.331876546E-2,3.018448949E-1
1.423843000E0,-6.986421661E0,-1.077040283E1,-1.469943237E0,1.427608000E0,4.815222621E-1,-8.440032601E-2,3.370305896E-1
1.433886000E0,-6.058950348E0,-8.851842499E0,-2.328108673E0,1.437651000E0,4.817197621E-1,-9.063886479E-3,3.876695931E-1
1.443929583E0,-5.475014648E0,-7.652087402E0,-2.398013306E0,1.447694583E0,5.316689610E-1,2.175554633E-2,4.482367933E-1
1.453973583E0,-4.875062256E0,-6.821015625E0,-1.578617249E0,1.457738583E0,7.344095707E-1,-1.973798499E-4,5.345093608E-1
1.464017583E0,-4.069287872E0,-6.337071991E0,-6.930587769E-2,1.467782583E0,1.067439914E0,5.297520198E-3,5.833640099E-1
1.474060583E0,-2.896177368E0,-6.327491913E0,1.510359192E0,1.477825583E0,1.415309906E0,3.908158839E-2,5.496262908E-1
1.484104583E0,-1.260379028E0,-6.658004608E0,2.348765717E0,1.487869583E0,1.645631909E0,8.357288688E-2,4.833290279E-1
1.494148583E0,1.586700439E-2,-7.235653381E0,2.140698395E0,1.497913583E0,1.749204993E0,9.371930361E-2,4.894997180E-1
1.504191583E0,-1.571731567E-2,-8.065377960E0,1.507215729E0,1.507956583E0,1.742612362E0,6.539418548E-2,5.006378889E-1
1.514235583E0,-1.603166199E-1,-8.475075989E0,4.698728943E-1,1.518000583E0,1.678352237E0,5.659932643E-2,5.353624225E-1
1.524279583E0,-7.246430969E-1,-8.747509460E0,-6.262976074E-1,1.528044583E0,1.537435055E0,5.625684559E-2,6.352248192E-1
1.534323583E0,-1.879790955E0,-9.198371887E0,-1.747466125E0,1.538088583E0,1.360920429E0,-8.693883196E-3,7.157467604E-1
1.544366583E0,-2.614612885E0,-9.822424164E0,-2.476599884E0,1.548131583E0,1.222173691E0,-1.099576578E-1,7.128111124E-1
1.554410583E0,-3.009791107E0,-1.022957748E1,-2.561473389E0,1.558175583E0,1.208931923E0,-1.136358753E-1,5.896527171E-1
1.564454583E0,-3.181184692E0,-1.008916946E1,-2.191143494E0,1.568219583E0,1.276143670E0,-8.541302383E-2,3.886583745E-1
1.574497583E0,-3.226839752E0,-9.507928162E0,-1.751657410E0,1.578262583E0,1.376165032E0,-1.959877461E-2,2.539323270E-1
1.584541583E0,-3.720064087E0,-8.656199341E0,-1.388063507E0,1.588306583E0,1.499456882E0,8.082024008E-2,2.185306549E-1
1.594585583E0,-4.128265228E0,-7.735613708E0,-1.077609100E0,1.598350583E0,1.617430091E0,2.123087198E-1,2.753754258E-1
1.604629583E0,-4.417613525E0,-6.853797455E0,-9.614506531E-1,1.608394583E0,1.658145308E0,3.249274194E-1,3.439068198E-1
1.614672583E0,-4.418511658E0,-6.104904785E0,-1.234782257E0,1.618437583E0,1.608238101E0,3.941801786E-1,4.111314714E-1
1.624716583E0,-4.188739471E0,-5.615722046E0,-1.595382385E0,1.628481583E0,1.492046237E0,3.887321651E-1,4.554147720E-1
1.634760583E0,-3.623664551E0,-5.525310059E0,-1.975442047E0,1.638525583E0,1.318296432E0,2.848336697E-1,4.696717262E-1
1.644803583E0,-2.946772156E0,-5.934708710E0,-2.011067963E0,1.648568583E0,1.159082651E0,1.063480601E-1,4.532994032E-1
1.654847583E0,-2.150278473E0,-6.629563751E0,-1.561852112E0,1.658612583E0,1.067000866E0,-6.458599865E-2,3.919395804E-1
1.664891583E0,-1.090033264E0,-7.083120575E0,-1.265019379E0,1.668656583E0,1.025183916E0,-1.279013157E-1,3.380771577E-1
1.674935583E0,-4.644841003E-1,-7.635471954E0,-1.376986542E0,1.678700583E0,1.039066315E0,-6.520545483E-2,2.877165079E-1
1.684978583E0,-1.098715210E-1,-8.185727692E0,-1.522184601E0,1.688743583E0,1.071200013E0,5.024870485E-2,2.501036227E-1
1.695022583E0,1.646575928E-3,-8.506809998E0,-1.609453125E0,1.698787583E0,1.070805311E0,1.312057376E-1,2.547390163E-1
1.705066583E0,-4.216731262E-1,-8.646619263E0,-1.811233521E0,1.708831583E0,1.017503262E0,1.076740548E-1,3.123309612E-1
1.715109583E0,-1.037342834E0,-8.870403900E0,-2.215093689E0,1.718874583E0,9.025560021E-1,4.944890738E-2,4.152636230E-1
1.725153583E0,-1.697919159E0,-9.197773132E0,-2.822680206E0,1.728918583E0,7.766918540E-1,2.178452164E-2,5.393842459E-1
1.735197583E0,-2.224224701E0,-9.494905243E0,-3.334016876E0,1.738962583E0,6.758320332E-1,8.904949576E-2,6.662737131E-1
1.745241583E0,-2.538421326E0,-9.716145172E0,-3.465742950E0,1.749006583E0,5.770269036E-1,1.653016508E-1,7.533116937E-1
1.755284583E0,-2.479893036E0,-9.958341522E0,-3.486998749E0,1.759049583E0,4.551601708E-1,1.722193062E-1,7.760688066E-1
1.765328583E0,-2.163151703E0,-1.015054184E1,-3.157533875E0,1.769093583E0,3.914941251E-1,1.181132048E-1,7.700010538E-1
1.775372583E0,-1.959575043E0,-1.009186386E1,-2.725532227E0,1.779137583E0,4.176464081E-1,9.508045018E-2,7.234017849E-1
1.785415583E0,-1.457968140E0,-9.869426422E0,-2.820734253E0,1.789180583E0,4.977660179E-1,1.394489706E-1,6.402587295E-1
1.795459583E0,-8.270301819E-1,-9.889784088E0,-2.886148224E0,1.799224583E0,5.384629965E-1,1.660100073E-1,5.348291397E-1
1.805503583E0,-3.667373657E-2,-1.015727783E1,-2.525697784E0,1.809268583E0,5.315246582E-1,3.961133212E-2,4.320508242E-1
1.815547583E0,7.701484680E-1,-1.061038559E1,-1.766326904E0,1.819312583E0,5.175296068E-1,-2.007415742E-1,3.241529763E-1
1.825590583E0,1.385668488E0,-1.116932327E1,-1.387913818E0,1.829355583E0,5.345144272E-1,-4.571102262E-1,2.252594382E-1
1.835634583E0,1.731000366E0,-1.148292114E1,-1.676962738E0,1.839399583E0,5.277315974E-1,-6.713773608E-1,1.214691922E-1
1.845678583E0,1.714833984E0,-1.140388550E1,-2.395917664E0,1.849443583E0,5.060704947E-1,-7.403591275E-1,6.739024818E-2
1.855721583E0,7.098239136E-1,-1.109402985E1,-3.129691772E0,1.859486583E0,4.662271440E-1,-6.879940629E-1,3.108636662E-2
1.865765583E0,-6.331832886E-1,-1.073866882E1,-3.388204193E0,1.869530583E0,3.554021120E-1,-6.726071239E-1,-1.220251620E-2
1.875809583E0,-1.611848145E0,-1.068193680E1,-2.670446777E0,1.879574583E0,1.837427616E-1,-7.519209981E-1,-1.202939227E-1
1.885853583E0,-2.409539337E0,-1.134595596E1,-2.205663300E0,1.889618583E0,3.169943392E-2,-6.563835740E-1,-2.456204146E-1
1.895896583E0,-3.674259338E0,-1.273401947E1,-2.198777618E0,1.899661583E0,-1.407406181E-1,-3.584180176E-1,-3.504021168E-1
1.905940583E0,-4.853956146E0,-1.390054367E1,-1.487307129E0,1.909705583E0,-3.061652780E-1,-9.685406089E-2,-4.560672939E-1
1.915984583E0,-5.416037292E0,-1.366717896E1,-4.141886902E-1,1.919749583E0,-5.704563856E-1,-1.100276038E-1,-5.855093002E-1
1.926027583E0,-5.409001923E0,-1.270138733E1,6.649172974E-1,1.929792583E0,-7.706922889E-1,-1.437224597E-1,-6.785460114E-1
1.936071583E0,-5.010979614E0,-1.182241516E1,1.950144653E0,1.939836583E0,-1.047090173E0,-2.403665334E-1,-8.302028179E-1
1.946115583E0,-3.879183197E0,-1.145507904E1,1.953437805E0,1.949880583E0,-1.341624856E0,-3.184203207E-1,-1.003395915E0
1.956159583E0,-3.883374481E0,-1.110795090E1,1.852697296E0,1.959924583E0,-1.612573981E0,-2.865368724E-1,-1.169178367E0
1.966202583E0,-4.457131348E0,-1.063418610E1,1.621877289E0,1.969967583E0,-1.821825147E0,-2.095318288E-1,-1.307726383E0
1.976246583E0,-4.759502563E0,-1.011416748E1,9.922865295E-1,1.980011583E0,-1.997260571E0,-5.909511819E-4,-1.472607493E0
1.986290583E0,-5.031636658E0,-1.025322830E1,-5.463638306E-2,1.990055583E0,-2.106362820E0,3.022940755E-1,-1.607845426E0
1.996333583E0,-5.724695435E0,-1.052790710E1,-8.090675354E-1,2.000098583E0,-2.153034925E0,6.946324706E-1,-1.644874930E0
2.006377583E0,-6.687642975E0,-1.097023727E1,-1.036145325E0,2.010142583E0,-2.114997387E0,1.043727160E0,-1.495547295E0
2.016421583E0,-7.755522308E0,-1.200114349E1,-9.000782776E-1,2.020186583E0,-1.938773036E0,1.203704834E0,-1.158928752E0
2.026465583E0,-8.843310242E0,-1.302980438E1,-3.197351074E-1,2.030230583E0,-1.647013426E0,1.183541298E0,-7.191950083E-1
2.036508583E0,-9.481882324E0,-1.347662521E1,1.368154907E-1,2.040273583E0,-1.324895620E0,1.093231797E0,-3.103305697E-1
2.046552583E0,-9.053922272E0,-1.332469116E1,2.737806702E-1,2.050317583E0,-1.030523896E0,1.029381394E0,-1.761909388E-2
2.056596583E0,-7.877518616E0,-1.250155289E1,2.475851440E-1,2.060361583E0,-8.384913802E-1,9.999200702E-1,1.472731382E-1
2.066639583E0,-6.655908966E0,-1.135149445E1,2.604583740E-2,2.070404583E0,-7.186177373E-1,8.714805841E-1,2.881335914E-1
2.076683583E0,-5.819298706E0,-1.006581802E1,-9.355545044E-2,2.080448583E0,-6.636537313E-1,7.051135898E-1,3.959556222E-1
2.086727583E0,-4.672832794E0,-9.179361420E0,-4.962181091E-1,2.090492583E0,-6.080970168E-1,5.708330274E-1,5.603759885E-1
2.096771583E0,-3.982169037E0,-8.738228760E0,-4.948709106E-1,2.100536583E0,-5.973600149E-1,4.844231308E-1,4.883351326E-1
2.106814583E0,-1.995350647E0,-8.293204193E0,-8.728349304E-1,2.110579583E0,-6.219995618E-1,2.487325966E-1,3.536012769E-1
2.116858583E0,-9.059161377E-1,-7.807613983E0,-1.249302063E0,2.120623583E0,-7.507519126E-1,9.855125844E-2,2.377723604E-1
2.126902583E0,-6.376739502E-1,-7.226821747E0,-1.848655701E0,2.130667583E0,-9.877069592E-1,5.936097726E-2,1.618485749E-1
2.136945583E0,-6.665638733E-1,-6.626569977E0,-2.513273621E0,2.140710583E0,-1.181208491E0,-1.086290926E-1,1.279225647E-1
2.146989583E0,-5.671705627E-1,-6.481820984E0,-2.447560272E0,2.150754583E0,-1.323906898E0,-4.595474303E-1,6.928615272E-2
2.157033583E0,-1.086740112E-1,-6.490203552E0,-2.245630188E0,2.160798583E0,-1.506227970E0,-8.941767216E-1,-7.708961517E-2
2.167077583E0,7.418572998E-1,-6.300398254E0,-2.450254669E0,2.170842583E0,-1.710058093E0,-1.319017768E0,-3.140819073E-1
2.177120583E0,1.781744843E0,-6.147715759E0,-2.490071869E0,2.180885583E0,-1.900278807E0,-1.662455678E0,-5.357384682E-1
2.187164583E0,2.068847809E0,-6.114335175E0,-2.466121674E0,2.190929583E0,-2.052503586E0,-1.856505632E0,-6.358424425E-1
2.197208583E0,1.857637024E0,-5.786816254E0,-2.456990662E0,2.200973583E0,-2.078677177E0,-1.931546330E0,-6.496930718E-1
2.207251583E0,1.360371094E0,-5.421725464E0,-2.284698944E0,2.211016583E0,-2.001405239E0,-1.899210215E0,-5.981816649E-1
2.217295583E0,8.375083923E-1,-4.827161865E0,-2.140997772E0,2.221060583E0,-1.811533451E0,-1.830308795E0,-5.659275055E-1
2.227339583E0,2.414479065E-1,-4.194727020E0,-2.051034851E0,2.231104583E0,-1.495698333E0,-1.734419227E0,-5.708849430E-1
2.237383583E0,-4.679269409E-1,-3.520978088E0,-2.074236603E0,2.241148583E0,-1.045947433E0,-1.598752737E0,-6.326289773E-1
2.247426583E0,-1.117126923E0,-2.948269043E0,-2.401456146E0,2.251191583E0,-5.401130319E-1,-1.425755858E0,-7.355503440E-1
2.257470583E0,-1.672172699E0,-2.910996552E0,-2.928210754E0,2.261235583E0,-3.440507501E-2,-1.213915944E0,-8.077960610E-1
2.267514583E0,-2.296823730E0,-3.316652985E0,-3.325933685E0,2.271279583E0,3.026624322E-1,-8.132673502E-1,-8.109929562E-1
2.277557583E0,-2.844235382E0,-4.274211731E0,-3.924538879E0,2.281322583E0,4.611132443E-1,-4.819370508E-1,-7.628947496E-1
2.287601583E0,-2.935695190E0,-5.353168030E0,-4.855303345E0,2.291366583E0,4.844449162E-1,-4.106751084E-1,-6.614722610E-1
2.297645583E0,-2.750679932E0,-6.177503815E0,-6.366261292E0,2.301410583E0,3.787160516E-1,-4.185176194E-1,-5.438625813E-1
2.307689583E0,-2.101629639E0,-6.875053253E0,-7.610773315E0,2.311454583E0,1.975686699E-1,-1.147233769E-1,-4.485493600E-1
2.317732583E0,-1.394350433E0,-7.597001953E0,-7.776029663E0,2.321497583E0,3.064881824E-2,3.878650665E-1,-3.436942399E-1
2.327776583E0,-1.138382721E0,-8.814719696E0,-7.114854584E0,2.331541583E0,-2.141624689E-2,6.056581140E-1,-2.324372381E-1
2.337820583E0,-1.424138489E0,-1.050515442E1,-5.722599792E0,2.341585583E0,-7.627025247E-2,4.670090675E-1,-1.379729509E-1
2.347863583E0,-2.010169830E0,-1.204470291E1,-4.816234589E0,2.351628583E0,-2.000145614E-1,2.031592876E-1,-1.381655037E-1
2.357907583E0,-2.561473389E0,-1.347916992E1,-5.461093597E0,2.361672583E0,-2.705585957E-1,-1.197514236E-1,-2.401841730E-1
2.367951583E0,-2.737956390E0,-1.419483170E1,-6.476132812E0,2.371716583E0,-2.587296367E-1,-3.877703547E-1,-2.608215213E-1
2.377994583E0,-3.000360718E0,-1.288939636E1,-7.214846649E0,2.381759583E0,-2.265372574E-1,-6.370536089E-1,-2.211948782E-1
2.388038583E0,-3.068020020E0,-1.050665131E1,-8.078700256E0,2.391803583E0,-3.697029054E-1,-6.918878555E-1,-1.943869591E-1
2.398082583E0,-2.788401489E0,-8.822204132E0,-9.523196411E0,2.401847583E0,-6.002119184E-1,-2.287130356E-1,-6.573618203E-2
2.408126583E0,-3.139122162E0,-8.139174500E0,-9.311087494E0,2.411891583E0,-6.315612793E-1,3.839043081E-1,3.355258703E-2
2.418169583E0,-3.004252625E0,-8.428223419E0,-5.439538422E0,2.421934583E0,-6.133683920E-1,7.745448351E-1,4.574977607E-2
2.428213583E0,-2.568359070E0,-1.097427887E1,-3.337759094E0,2.431978583E0,-6.629588604E-1,9.742296934E-1,1.218622457E-2
2.438257583E0,-3.237168274E0,-1.419378387E1,-3.715872803E0,2.442022583E0,-6.441398263E-1,1.148424745E0,5.187613517E-2
2.448301083E0,-5.795797577E0,-1.648626663E1,-3.502416687E0,2.452066083E0,-3.142263591E-1,1.077108264E0,1.127128527E-1
2.458345083E0,-8.205037537E0,-1.756597137E1,-8.198451233E-1,2.462110083E0,2.788388543E-2,6.130444407E-1,1.712197363E-1
2.468389083E0,-1.002689896E1,-1.740236160E1,-7.259902954E-2,2.472154083E0,1.724906117E-1,-1.539163738E-1,2.632822692E-1
2.478433083E0,-9.542805634E0,-1.539054520E1,-1.616638184E0,2.482198083E0,1.709748358E-1,-4.029971957E-1,4.296948612E-1
2.488476083E0,-7.588020630E0,-1.160716278E1,-2.165995789E0,2.492241083E0,1.301610917E-1,-1.640086025E-1,5.854266882E-1
2.498520083E0,-6.410569153E0,-8.606502686E0,-1.908980255E0,2.502285083E0,2.182128280E-1,1.326308027E-2,6.830021143E-1
2.508564083E0,-5.054688721E0,-6.917415161E0,-6.873706055E-1,2.512329083E0,5.181239247E-1,5.412183329E-2,7.245979905E-1
2.518607083E0,-3.580853577E0,-5.824088745E0,9.928852844E-1,2.522372083E0,9.510313869E-1,9.321316332E-2,6.856033802E-1
2.528651083E0,-2.367925873E0,-5.526357880E0,2.081271973E0,2.532416083E0,1.280209541E0,4.347464070E-2,5.776641369E-1
2.538695083E0,-1.104553070E0,-5.643414459E0,1.833088074E0,2.542460083E0,1.417003155E0,6.719231606E-4,4.387232363E-1
2.548739083E0,-7.574249268E-2,-6.125711517E0,1.003662872E0,2.552504083E0,1.447000265E0,1.419438981E-2,3.495875001E-1
2.558782083E0,3.345542908E-1,-6.758146362E0,2.197430420E-1,2.562547083E0,1.476570010E0,6.742871553E-2,3.063589931E-1
2.568826083E0,3.164419556E-1,-7.362739105E0,-3.546125793E-1,2.572591083E0,1.524715185E0,1.859425753E-1,3.053581715E-1
2.578870083E0,-4.102967834E-1,-8.156688080E0,-8.963360596E-1,2.582635083E0,1.533544898E0,3.219558597E-1,3.273328841E-1
2.588913083E0,-1.683399353E0,-8.832083588E0,-1.673669586E0,2.592678083E0,1.516510487E0,4.481012523E-1,3.667460680E-1
2.598957083E0,-3.049608307E0,-9.104966125E0,-2.120640106E0,2.602722083E0,1.530372500E0,5.256914496E-1,4.026132524E-1
2.609001083E0,-3.766916656E0,-9.235045624E0,-2.011067963E0,2.612766083E0,1.595324874E0,6.272326708E-1,4.342185855E-1
2.619045083E0,-4.280049591E0,-9.361682281E0,-1.569635925E0,2.622810083E0,1.658716917E0,7.370989919E-1,4.446776211E-1
2.629088083E0,-4.314927063E0,-9.041647797E0,-1.337319031E0,2.632853083E0,1.649843812E0,6.894689202E-1,4.639234841E-1
2.639132083E0,-4.287084961E0,-8.531508636E0,-1.329984283E0,2.642897083E0,1.651103020E0,5.810566545E-1,5.534185767E-1
2.649176083E0,-4.522545319E0,-7.812853088E0,-9.383985901E-1,2.652941083E0,1.646605730E0,5.155476928E-1,6.774973869E-1
2.659219083E0,-4.723128204E0,-7.120393066E0,-5.918692017E-1,2.662984083E0,1.598483443E0,4.714147151E-1,7.587276101E-1
2.669263083E0,-4.454137573E0,-6.817123718E0,-7.515870667E-1,2.673028083E0,1.522177219E0,3.861107528E-1,7.654547691E-1
2.679307083E0,-3.615281982E0,-7.020251312E0,-1.293609924E0,2.683072083E0,1.426174760E0,3.158945739E-1,6.832180619E-1
2.689350083E0,-2.499053192E0,-7.625592499E0,-1.741478577E0,2.693115083E0,1.326478720E0,2.744091749E-1,5.486229658E-1
2.699394083E0,-1.678160248E0,-8.280929718E0,-1.768123169E0,2.703159083E0,1.249683619E0,2.663739920E-1,4.374445677E-1
2.709438083E0,-1.408421173E0,-8.846154327E0,-1.716031494E0,2.713203083E0,1.181315422E0,2.637811303E-1,3.189855516E-1
2.719482083E0,-1.072519684E0,-8.950936432E0,-1.825304260E0,2.723247083E0,1.111552715E0,3.476065099E-1,2.196926475E-1
2.729525083E0,-8.092172241E-1,-8.581504669E0,-1.918859711E0,2.733290083E0,1.066222310E0,4.271072149E-1,1.584775001E-1
2.739569083E0,-6.670129395E-1,-8.134085083E0,-1.736987915E0,2.743334083E0,1.043201685E0,4.700817168E-1,1.503920853E-1
2.749613083E0,-8.687933350E-1,-7.859256592E0,-1.479822693E0,2.753378083E0,1.040169954E0,4.144943655E-1,1.968594491E-1
2.759656083E0,-1.384620667E0,-7.732470245E0,-1.443897400E0,2.763421083E0,1.026756763E0,2.742840946E-1,3.059278131E-1
2.769700083E0,-2.053579559E0,-7.717800751E0,-1.558558960E0,2.773465083E0,1.007364154E0,1.717068702E-1,4.321145117E-1
2.779744083E0,-2.401456146E0,-7.696245575E0,-1.708846436E0,2.783509083E0,9.677308202E-1,1.173211783E-1,5.522264242E-1
2.789788083E0,-2.323019257E0,-7.682474213E0,-2.090402985E0,2.793553083E0,8.982710242E-1,1.014122516E-1,6.686347723E-1
2.799831083E0,-2.097737732E0,-7.552993469E0,-2.622097321E0,2.803596083E0,8.169596195E-1,1.523018330E-1,7.818817496E-1
2.809875083E0,-1.949096832E0,-7.581883392E0,-2.903362427E0,2.813640083E0,7.115042806E-1,1.667899638E-1,8.800584078E-1
2.819919083E0,-1.674418030E0,-7.909402313E0,-2.994822235E0,2.823684083E0,6.104933023E-1,1.142018959E-1,9.222851992E-1
2.829962083E0,-1.179397430E0,-8.439150696E0,-2.858755188E0,2.833727083E0,5.172666907E-1,5.553139746E-2,8.745033145E-1
2.840006083E0,-8.479866028E-1,-9.044641571E0,-2.779420166E0,2.843771083E0,4.677301049E-1,5.467820913E-2,7.781852484E-1
2.850050083E0,-9.556127930E-1,-9.534872131E0,-2.794089661E0,2.853815083E0,4.631380141E-1,1.439966261E-1,6.700108051E-1
2.860093083E0,-1.426832886E0,-1.002884491E1,-2.715353394E0,2.863858083E0,4.533589780E-1,1.806740016E-1,5.511295795E-1
2.870137083E0,-1.510957947E0,-1.071651489E1,-2.195484467E0,2.873902083E0,4.628960192E-1,6.241420656E-2,4.618162215E-1
2.880181083E0,-1.300944672E0,-1.131691635E1,-1.557361450E0,2.883946083E0,4.840560257E-1,-1.205492690E-1,3.727039993E-1
2.890225083E0,-7.698490906E-1,-1.159054733E1,-1.722767487E0,2.893990083E0,5.116010904E-1,-2.587947547E-1,2.651093602E-1
2.900268083E0,-1.290316772E-1,-1.148381927E1,-2.545157318E0,2.904033083E0,5.036385059E-1,-3.450692594E-1,1.594638973E-1
2.910312083E0,2.585124207E-1,-1.132799332E1,-3.319048004E0,2.914077083E0,4.921064973E-1,-3.515750766E-1,8.535584807E-2
2.920356083E0,8.427474976E-2,-1.101918549E1,-3.714675293E0,2.924121083E0,5.015799999E-1,-2.934074998E-1,7.262571249E-3
2.930399083E0,-6.683601379E-1,-1.072355026E1,-3.827390900E0,2.934164083E0,5.198348761E-1,-2.089046091E-1,-4.517613724E-2
2.940443083E0,-1.789229279E0,-1.066621948E1,-3.722459106E0,2.944208083E0,5.119894743E-1,-1.545694172E-1,-6.630031019E-2
2.950487083E0,-2.695145416E0,-1.070019882E1,-3.044369202E0,2.954252083E0,4.810510278E-1,-2.226544619E-1,-1.487365961E-1
2.960530083E0,-2.918930054E0,-1.115195938E1,-1.941013641E0,2.964295083E0,3.629277945E-1,-3.425884545E-1,-1.704609841E-1
2.970574083E0,-3.564238129E0,-1.216699860E1,-1.532363434E0,2.974339083E0,2.339135855E-1,-2.271489501E-1,-1.600759923E-1
2.980618083E0,-4.247716827E0,-1.296064819E1,-1.720073090E0,2.984383083E0,1.703079045E-1,6.787505746E-2,-2.067768723E-1
2.990662083E0,-4.204307098E0,-1.250140320E1,-1.428778839E0,2.994427083E0,4.825604334E-2,2.012754679E-1,-3.030208647E-1
3.000705083E0,-4.342020721E0,-1.145148651E1,-7.168592834E-1,3.004470083E0,-1.676063538E-1,2.219272554E-1,-3.853089213E-1
3.010749083E0,-4.453089752E0,-1.095002930E1,2.174977112E-1,3.014514083E0,-4.327362776E-1,1.564963162E-1,-4.791789651E-1
3.020793083E0,-4.224215698E0,-1.098655334E1,1.312919769E0,3.024558083E0,-7.411370873E-1,2.701728791E-2,-6.377461553E-1
3.030836083E0,-3.728746033E0,-1.066412384E1,1.530716858E0,3.034601083E0,-1.073758960E0,-4.052340612E-2,-8.592447639E-1
3.040880083E0,-3.664679260E0,-1.025008484E1,9.508227539E-1,3.044645083E0,-1.329588056E0,-4.067666829E-2,-1.083045959E0
3.050924083E0,-4.273313599E0,-1.020622604E1,8.958869934E-1,3.054689083E0,-1.563608766E0,2.459793910E-2,-1.306161046E0
3.060968083E0,-4.533322906E0,-1.017449203E1,6.210585022E-1,3.064733083E0,-1.779409051E0,8.361557126E-2,-1.490368366E0
3.071011083E0,-4.897665253E0,-1.020502853E1,-1.011895752E-1,3.074776083E0,-1.968333125E0,1.904384196E-1,-1.618881941E0
3.081055083E0,-5.546865234E0,-9.970615997E0,-8.149053955E-1,3.084820083E0,-2.101310253E0,3.837069273E-1,-1.649378181E0
3.091099083E0,-6.580465851E0,-1.047656387E1,-1.351988525E0,3.094864083E0,-2.118298531E0,6.012725830E-1,-1.538856149E0
3.101142083E0,-7.520960083E0,-1.137095398E1,-1.206491089E0,3.104907083E0,-1.998461127E0,8.090445399E-1,-1.250746727E0
3.111186083E0,-8.497080231E0,-1.222956848E1,-7.295828247E-1,3.114951083E0,-1.749175787E0,1.005288839E0,-8.417900801E-1
3.121230083E0,-9.125623169E0,-1.282577866E1,-2.827619934E-1,3.124995083E0,-1.431545973E0,1.190214992E0,-4.659928679E-1
3.131273083E0,-8.778345337E0,-1.295196625E1,3.218307495E-2,3.135038083E0,-1.103064537E0,1.315195799E0,-2.771427929E-1
3.141317083E0,-7.643106079E0,-1.248867966E1,1.727407837E-1,3.145082083E0,-8.473832011E-1,1.324425340E0,-1.855125576E-1
3.151361083E0,-6.638545074E0,-1.174203232E1,3.442840576E-2,3.155126083E0,-6.968957186E-1,1.209692955E0,-2.912854590E-2
3.161405083E0,-5.868246918E0,-1.103744751E1,-1.308279419E-1,3.165170083E0,-5.930460691E-1,1.069056034E0,2.232060283E-1
3.171448083E0,-4.646936646E0,-1.039812698E1,1.092727661E-2,3.175213083E0,-5.971300602E-1,8.706769347E-1,3.113638759E-1
3.181492083E0,-2.761457520E0,-9.693392487E0,-5.119354248E-1,3.185257083E0,-6.330461502E-1,6.191441417E-1,1.950792521E-1
3.191536083E0,-8.080197144E-1,-9.118288422E0,-1.166823578E0,3.195301083E0,-7.072951198E-1,3.219202161E-1,1.207019612E-1
3.201579083E0,-5.288502502E-1,-8.709937592E0,-1.654509430E0,3.205344083E0,-8.699828386E-1,9.879058599E-2,1.349826902E-1
3.211623083E0,-9.930349731E-1,-8.332572327E0,-2.413730621E0,3.215388083E0,-1.101159334E0,-8.052910119E-2,1.890824139E-1
3.221667083E0,-1.349443817E0,-8.031847687E0,-3.185825043E0,3.225432083E0,-1.323684692E0,-3.829604685E-1,1.921559125E-1
3.231710083E0,-9.699829102E-1,-7.647746429E0,-3.258424072E0,3.235475083E0,-1.527022123E0,-6.818800569E-1,9.503121674E-2
3.241754083E0,-2.011816406E-1,-7.408543854E0,-2.937341766E0,3.245519083E0,-1.723022342E0,-9.629546404E-1,-7.044109702E-2
3.251798083E0,6.030958557E-1,-7.216493225E0,-2.701282654E0,3.255563083E0,-1.900885224E0,-1.304881334E0,-2.856492996E-1
3.261842083E0,1.307081909E0,-6.984625397E0,-2.671943665E0,3.265607083E0,-2.032666683E0,-1.662888646E0,-4.744045138E-1
3.271885083E0,1.345102844E0,-6.859934692E0,-2.635269928E0,3.275650083E0,-2.109413147E0,-1.915363789E0,-5.608523488E-1
3.281929083E0,9.312135315E-1,-6.550378418E0,-2.507735138E0,3.285694083E0,-2.103618860E0,-2.044886112E0,-5.603541732E-1
3.291973083E0,4.559518433E-1,-5.898334351E0,-2.347867584E0,3.295738083E0,-2.005416155E0,-2.066827297E0,-4.946962893E-1
3.302016083E0,3.891906738E-3,-4.912783813E0,-2.159708862E0,3.305781083E0,-1.785818100E0,-2.019385338E0,-4.219212830E-1
3.312060083E0,-4.754113770E-1,-4.009711761E0,-1.831142120E0,3.315825083E0,-1.474977612E0,-1.877946138E0,-4.082113504E-1
3.322104083E0,-7.985893250E-1,-3.187471619E0,-1.656754761E0,3.325869083E0,-1.102451205E0,-1.647925973E0,-4.697450399E-1
3.332148083E0,-1.044827271E0,-2.476899261E0,-1.724114685E0,3.335913083E0,-7.052484155E-1,-1.408001781E0,-5.548564792E-1
3.342191083E0,-1.395398254E0,-2.106120300E0,-1.960323486E0,3.345956083E0,-3.143424690E-1,-1.137464166E0,-6.101016998E-1
3.352235083E0,-1.807790680E0,-2.227068787E0,-2.317929840E0,3.356000083E0,5.706569552E-2,-9.080131650E-1,-6.142383814E-1
3.362279083E0,-2.074386292E0,-2.826272736E0,-2.856509857E0,3.366044083E0,3.500823975E-1,-7.926480770E-1,-6.036552191E-1
3.372322083E0,-1.987267456E0,-3.292852478E0,-3.832180939E0,3.376087083E0,5.376189947E-1,-7.595309019E-1,-5.764014721E-1
3.382366083E0,-1.805395660E0,-3.758534088E0,-4.852459259E0,3.386131083E0,6.113589406E-1,-6.297485232E-1,-5.309865475E-1
3.392410083E0,-1.420695648E0,-4.091142426E0,-5.635780334E0,3.396175083E0,5.544399619E-1,-2.016683221E-1,-4.622061253E-1
3.402453083E0,-1.161135406E0,-4.453688507E0,-5.989045715E0,3.406218083E0,4.219143987E-1,3.675324321E-1,-3.592748940E-1
3.412497083E0,-1.282982025E0,-5.406008148E0,-6.478976898E0,3.416262083E0,2.483268827E-1,8.294164538E-1,-2.899895608E-1
3.422541083E0,-1.552272034E0,-7.099137268E0,-7.144792328E0,3.426306083E0,6.335709989E-2,9.151867032E-1,-2.158210874E-1
3.432585083E0,-2.088457031E0,-9.943073273E0,-7.391778717E0,3.436350083E0,-1.408836544E-1,6.422851086E-1,-1.090813279E-1
3.442628083E0,-3.029699707E0,-1.363589401E1,-6.945856018E0,3.446393083E0,-2.733636200E-1,3.681274056E-1,-7.603504509E-2
3.452671500E0,-3.920946350E0,-1.717812790E1,-6.181395721E0,3.456436500E0,-2.124741822E-1,3.534707054E-2,-1.602101177E-1
3.462715500E0,-4.101021881E0,-1.887035889E1,-5.895340576E0,3.466480500E0,-1.132892445E-1,-3.927955329E-1,-2.083382457E-1
3.472758500E0,-3.842659149E0,-1.691856766E1,-6.361770630E0,3.476523500E0,-2.310324013E-1,-7.177744508E-1,-1.071666181E-1
3.482802500E0,-3.397484894E0,-1.303698944E1,-7.980504456E0,3.486567500E0,-5.282317996E-1,-7.729879618E-1,-4.442258924E-2
3.492846500E0,-2.016606445E0,-9.129664764E0,-9.642947388E0,3.496611500E0,-8.336654902E-1,-3.846585751E-1,1.942057163E-2
3.502889500E0,-1.631756744E0,-6.986571350E0,-1.025188110E1,3.506654500E0,-1.055890322E0,2.943838239E-1,1.211304218E-1
3.512933500E0,-2.843037872E0,-7.528594208E0,-9.145681458E0,3.516698500E0,-9.610458016E-1,8.567656875E-1,1.544055492E-1
3.522977500E0,-3.461701355E0,-9.736203461E0,-5.621859283E0,3.526742500E0,-7.945256233E-1,1.140676618E0,8.856298029E-2
3.533020500E0,-3.519181824E0,-1.306647812E1,-3.018323364E0,3.536785500E0,-6.202068329E-1,1.142829537E0,-4.624037445E-2
3.543064500E0,-4.803361359E0,-1.588930801E1,-3.013832703E0,3.546829500E0,-2.950020432E-1,1.086730242E0,-5.445600674E-2
3.553108500E0,-6.928192749E0,-1.685988968E1,-1.932481384E0,3.556873500E0,1.199701056E-1,6.906412244E-1,-2.813585568E-3
3.563152500E0,-7.970026245E0,-1.548365158E1,-2.850073242E-1,3.566917500E0,4.456449151E-1,1.395542920E-1,-7.454054803E-2
3.573195500E0,-7.163503418E0,-1.172047714E1,-4.611909485E-1,3.576960500E0,5.977897048E-1,-1.997816861E-1,-2.318175137E-2
3.583239500E0,-6.640640717E0,-8.366701355E0,-1.885928192E0,3.587004500E0,6.787717938E-1,-1.282785237E-1,1.785597354E-1
3.593283500E0,-6.631958771E0,-6.723717957E0,-2.647843781E0,3.597048500E0,6.346365809E-1,6.210474670E-2,3.165184259E-1
3.603326500E0,-5.935906219E0,-6.155948639E0,-3.225492554E0,3.607091500E0,6.001864076E-1,9.778876603E-2,4.466178715E-1
3.613370500E0,-4.797074432E0,-6.285279694E0,-2.717598724E0,3.617135500E0,7.086454630E-1,8.041350543E-2,5.802145004E-1
3.623414500E0,-3.657194824E0,-6.587201843E0,-1.343306580E0,3.627179500E0,9.385511875E-1,1.528477818E-1,6.719694734E-1
3.633458500E0,-2.465373230E0,-6.824159088E0,3.469784546E-1,3.637223500E0,1.179781795E0,2.584205568E-1,6.830170751E-1
3.643501500E0,-1.344803467E0,-7.099885712E0,1.491498413E0,3.647266500E0,1.322592020E0,2.880226970E-1,6.404573917E-1
3.653545500E0,-4.778063965E-1,-7.679929504E0,1.624871063E0,3.657310500E0,1.377587914E0,2.052361965E-1,6.163927913E-1
3.663589500E0,-7.170089722E-2,-8.665929108E0,1.002465363E0,3.667354500E0,1.359120488E0,9.051892161E-2,6.095076203E-1
3.673632500E0,-9.819580078E-2,-9.488169250E0,-1.275347900E-1,3.677397500E0,1.311766028E0,8.664987981E-2,6.388596296E-1
3.683676500E0,-9.903405762E-1,-1.011536499E1,-1.313967590E0,3.687441500E0,1.286704779E0,2.124547362E-1,6.947744489E-1
3.693720500E0,-2.609074402E0,-1.051578232E1,-2.126028900E0,3.697485500E0,1.313711882E0,2.720485628E-1,7.409978509E-1
3.703763500E0,-4.027973785E0,-1.059436890E1,-2.338886261E0,3.707528500E0,1.402259350E0,2.823463082E-1,7.145714164E-1
3.713807500E0,-4.595144348E0,-1.047910858E1,-1.946252747E0,3.717572500E0,1.515563011E0,2.974258959E-1,6.464208364E-1
3.723851500E0,-4.582869873E0,-1.005084915E1,-1.518891449E0,3.727616500E0,1.597514033E0,3.335277438E-1,5.515879393E-1
3.733895500E0,-4.063450012E0,-9.458979950E0,-1.450783081E0,3.737660500E0,1.645418763E0,3.269454837E-1,4.587544203E-1
3.743938500E0,-3.666625214E0,-8.922495575E0,-1.301842804E0,3.747703500E0,1.691405058E0,3.287794590E-1,3.766879141E-1
3.753982500E0,-3.541186066E0,-8.295449524E0,-1.158291321E0,3.757747500E0,1.697194219E0,3.267637193E-1,2.900691330E-1
3.764026500E0,-3.292253723E0,-7.644453278E0,-1.443298645E0,3.767791500E0,1.636369944E0,3.782359064E-1,2.230605632E-1
3.774069500E0,-3.055296478E0,-6.950795746E0,-1.884730682E0,3.777834500E0,1.533872366E0,5.036162138E-1,2.265309244E-1
3.784113500E0,-2.996169434E0,-6.371201019E0,-2.220183105E0,3.787878500E0,1.445134878E0,6.847279072E-1,2.842156589E-1
3.794157500E0,-2.821482697E0,-5.909561005E0,-2.199376373E0,3.797922500E0,1.341727018E0,6.856338978E-1,3.533923328E-1
3.804200500E0,-2.195783844E0,-5.901178436E0,-2.098336487E0,3.807965500E0,1.191913843E0,5.713672638E-1,4.200661778E-1
3.814244500E0,-1.770817566E0,-6.259832611E0,-1.809586945E0,3.818009500E0,1.068191409E0,4.498658478E-1,4.651269317E-1
3.824288500E0,-1.633103943E0,-6.627468109E0,-1.065035248E0,3.828053500E0,1.025849462E0,3.079978228E-1,4.731940031E-1
3.834332500E0,-1.343755646E0,-6.965614929E0,-6.933581543E-1,3.838097500E0,1.052675486E0,2.356397361E-1,4.984458387E-1
3.844375500E0,-1.280587006E0,-7.526049500E0,-7.382647705E-1,3.848140500E0,1.123451471E0,2.473528087E-1,5.041957498E-1
3.854419500E0,-1.312321014E0,-7.937244415E0,-8.105644226E-1,3.858184500E0,1.188078880E0,2.741220891E-1,5.293706059E-1
3.864463500E0,-1.519190826E0,-8.272397461E0,-1.019679565E0,3.868228500E0,1.195283890E0,2.819220722E-1,5.646851063E-1
3.874506500E0,-1.797611847E0,-8.546627197E0,-1.394500122E0,3.878271500E0,1.147543550E0,3.181719482E-1,6.069784760E-1
3.884550500E0,-2.078727264E0,-8.567284241E0,-1.803599396E0,3.888315500E0,1.058165193E0,3.629904687E-1,6.386109591E-1
3.894594500E0,-2.260898438E0,-8.370742950E0,-2.287243652E0,3.898359500E0,9.317548275E-1,4.168531597E-1,6.794811487E-1
3.904637500E0,-2.664608917E0,-8.051007843E0,-2.771935730E0,3.908402500E0,7.828590274E-1,5.018525720E-1,7.733051181E-1
3.914681500E0,-3.303181000E0,-7.811954956E0,-3.125650177E0,3.918446500E0,6.311762929E-1,5.380582809E-1,8.888705969E-1
3.924725500E0,-3.485950928E0,-8.090974731E0,-3.327729950E0,3.928490500E0,4.800023139E-1,4.719660580E-1,9.169178605E-1
3.934768500E0,-2.657274170E0,-8.828491058E0,-3.363355865E0,3.938533500E0,4.111822546E-1,4.306393862E-1,8.279101849E-1
3.944812500E0,-1.705553284E0,-9.395960999E0,-3.299438782E0,3.948577500E0,4.121278524E-1,5.022256374E-1,7.088811398E-1
3.954856500E0,-1.429078217E0,-9.514664154E0,-3.559897156E0,3.958621500E0,4.364371896E-1,5.946319699E-1,5.896258354E-1
3.964900500E0,-1.267713776E0,-9.611213379E0,-3.387306061E0,3.968665500E0,4.788234234E-1,5.225872993E-1,5.105419755E-1
3.974943500E0,-9.057664490E-1,-9.809101868E0,-2.673290863E0,3.978708500E0,5.049746037E-1,3.302809596E-1,4.645836055E-1
3.984987500E0,-3.809577942E-1,-1.016775604E1,-2.216889954E0,3.988752500E0,5.241134167E-1,8.095879108E-2,4.208731651E-1
3.995031500E0,3.053649902E-1,-1.081605789E1,-2.412084045E0,3.998796500E0,5.463217497E-1,-1.426713765E-1,3.340618312E-1
4.005074500E0,1.059047699E0,-1.132574799E1,-2.787952423E0,4.008839500E0,5.820488930E-1,-2.761804461E-1,2.378508449E-1
4.015118500E0,1.455423431E0,-1.142918289E1,-3.076402588E0,4.018883500E0,6.172196865E-1,-3.559170961E-1,1.348341852E-1
4.025162500E0,1.098415833E0,-1.118054993E1,-3.387755127E0,4.028927500E0,6.214731336E-1,-4.046639800E-1,4.574871063E-2
4.035205500E0,2.450404358E-1,-1.109582611E1,-3.531156921E0,4.038970500E0,5.242109895E-1,-5.897750258E-1,-5.340370536E-2
4.045249500E0,-5.432203674E-1,-1.129985184E1,-2.936593323E0,4.049014500E0,3.850018680E-1,-8.370537162E-1,-1.638316512E-1
4.055293500E0,-1.639540558E0,-1.198617462E1,-2.387535095E0,4.059058500E0,2.467904836E-1,-1.051088810E0,-2.307584882E-1
4.065337500E0,-2.659519501E0,-1.330867447E1,-2.146236877E0,4.069102500E0,1.548653394E-1,-9.946836829E-1,-2.755783796E-1
4.075380500E0,-3.587739258E0,-1.411998734E1,-2.164349213E0,4.079145500E0,4.291137308E-2,-8.265681863E-1,-3.478049040E-1
4.085424500E0,-4.040547638E0,-1.340492432E1,-2.104922791E0,4.089189500E0,-1.175465584E-1,-7.483914495E-1,-4.748322666E-1
4.095468500E0,-4.061653748E0,-1.214304840E1,-1.225501556E0,4.099233500E0,-3.485318422E-1,-6.805354357E-1,-5.678822994E-1
4.105511500E0,-4.032913513E0,-1.150238068E1,-2.430944824E-1,4.109276500E0,-6.090008020E-1,-6.304748058E-1,-6.485480666E-1
4.115555500E0,-3.997586975E0,-1.151764893E1,8.250842285E-1,4.119320500E0,-8.522025347E-1,-5.824697614E-1,-7.593821287E-1
4.125599500E0,-3.912264404E0,-1.147349075E1,1.635948029E0,4.129364500E0,-1.133371592E0,-4.809556007E-1,-9.072468281E-1
4.135642500E0,-3.869154053E0,-1.094868210E1,1.522334290E0,4.139407500E0,-1.376198053E0,-3.488321900E-1,-1.071646094E0
4.145686500E0,-4.269421692E0,-1.029334488E1,1.516346741E0,4.149451500E0,-1.549952030E0,-2.547578514E-1,-1.216720104E0
4.155730500E0,-4.991819458E0,-9.733059998E0,1.379531250E0,4.159495500E0,-1.778085828E0,-2.202067971E-1,-1.325443387E0
4.165773500E0,-5.605243835E0,-9.586365051E0,6.143225098E-1,4.169538500E0,-2.067539454E0,-2.128661126E-1,-1.343612432E0
4.175817500E0,-6.527176666E0,-1.046818130E1,-6.010002136E-1,4.179582500E0,-2.280005455E0,-1.169859096E-1,-1.261358857E0
4.185861500E0,-7.595355377E0,-1.124267075E1,-1.234632568E0,4.189626500E0,-2.363366842E0,3.071134724E-2,-1.083016634E0
4.195905500E0,-8.474177856E0,-1.166733765E1,-1.334924011E0,4.199670500E0,-2.310964823E0,2.770745456E-1,-7.808236480E-1
4.205948500E0,-9.416917419E0,-1.239377701E1,-1.279688873E0,4.209713500E0,-2.099543571E0,4.861943722E-1,-3.952728510E-1
4.215992500E0,-1.002510269E1,-1.303204971E1,-1.064586182E0,4.219757500E0,-1.746500373E0,7.273800969E-1,-7.713641971E-2
4.226036500E0,-1.004411316E1,-1.310494812E1,-8.901988220E-1,4.229801500E0,-1.304887176E0,1.089603901E0,1.000715271E-1
4.236079500E0,-9.483678589E0,-1.255544083E1,-6.113287354E-1,4.239844500E0,-9.241930842E-1,1.601394653E0,1.487378627E-1
4.246123500E0,-8.568182373E0,-1.133862122E1,-6.207591248E-1,4.249888500E0,-6.526163220E-1,1.889746189E0,-2.581855096E-2
4.256167500E0,-7.271578674E0,-9.657766571E0,-6.676116943E-1,4.259932500E0,-4.795015156E-1,1.844252229E0,-1.417470127E-1
4.266210500E0,-6.077661438E0,-9.025032349E0,-5.625302124E-1,4.269975500E0,-4.331481159E-1,1.600130916E0,7.913172990E-2
4.276254500E0,-5.065017242E0,-8.687334595E0,-7.589218140E-2,4.280019500E0,-5.116149187E-1,1.294123650E0,1.646737903E-1
4.286298500E0,-3.106639709E0,-8.129594421E0,3.899391174E-1,4.290063500E0,-6.389783621E-1,9.721859097E-1,1.979975849E-1
4.296342500E0,-2.010169830E0,-8.247848511E0,-1.422042847E-2,4.300107500E0,-7.425785661E-1,5.348868966E-1,2.359295338E-1
4.306385500E0,-1.509760437E0,-8.180189209E0,-7.929011536E-1,4.310150500E0,-9.558459520E-1,1.278197467E-1,2.314291745E-1
4.316429500E0,-1.021924896E0,-7.769443359E0,-2.421065369E0,4.320194500E0,-1.236012101E0,-2.094600201E-1,3.187789917E-1
4.326473500E0,-1.283431091E0,-7.311246185E0,-3.150797882E0,4.330238500E0,-1.450228095E0,-5.633895993E-1,3.913883269E-1
4.336516500E0,-7.393125916E-1,-6.858737183E0,-2.729274445E0,4.340281500E0,-1.608287215E0,-9.593552947E-1,3.599260151E-1
4.346560500E0,9.984237671E-2,-6.619235229E0,-2.270927582E0,4.350325500E0,-1.759409785E0,-1.275347710E0,2.622174025E-1
4.356604500E0,7.982899475E-1,-6.299350433E0,-1.959275665E0,4.360369500E0,-1.873463392E0,-1.638288856E0,1.130867824E-1
4.366647500E0,1.873653717E0,-6.087989960E0,-1.983076172E0,4.370412500E0,-1.941117406E0,-2.013345718E0,-6.960990280E-2
4.376691500E0,1.927691345E0,-5.983806610E0,-2.312241669E0,4.380456500E0,-1.975458264E0,-2.125005245E0,-1.394188106E-1
4.386735500E0,1.213676147E0,-5.484744415E0,-2.536026306E0,4.390500500E0,-1.900394917E0,-2.006041288E0,-1.348656565E-1
4.396778500E0,3.978726196E-1,-4.707560577E0,-2.609972534E0,4.400543500E0,-1.658341765E0,-1.729227662E0,-1.688838154E-1
4.406822500E0,-2.842588806E-1,-3.856580200E0,-2.567610626E0,4.410587500E0,-1.303286672E0,-1.355155349E0,-2.461640984E-1
4.416866500E0,-8.241860962E-1,-3.093018036E0,-2.556683350E0,4.420631500E0,-9.236224890E-1,-9.680137038E-1,-3.607564867E-1
4.426909500E0,-1.342258759E0,-2.568808136E0,-2.740650787E0,4.430674500E0,-5.788120627E-1,-6.432659626E-1,-4.737405181E-1
4.436953500E0,-2.017205200E0,-2.599194946E0,-2.721041565E0,4.440718500E0,-2.539644539E-1,-4.778892398E-1,-5.560263395E-1
4.446997875E0,-2.549348602E0,-2.907703400E0,-2.691702576E0,4.450762875E0,2.788678976E-4,-4.504544139E-1,-6.054358482E-1
4.457041875E0,-2.872676239E0,-3.365152130E0,-3.078797607E0,4.460806875E0,2.084126323E-1,-5.174493790E-1,-6.067267060E-1
4.467084875E0,-3.009791107E0,-3.876339111E0,-3.583248596E0,4.470849875E0,3.888274729E-1,-6.060058475E-1,-6.137580276E-1
4.477128875E0,-2.675236816E0,-4.161047058E0,-4.147874451E0,4.480893875E0,5.618636608E-1,-6.364822984E-1,-6.138677597E-1
4.487172875E0,-2.144440613E0,-4.350552979E0,-4.685556335E0,4.490937875E0,6.429610848E-1,-5.029152036E-1,-6.001009345E-1
4.497215875E0,-1.607207794E0,-4.831502838E0,-5.332810364E0,4.500980875E0,5.041845441E-1,-4.431890696E-2,-5.417292118E-1
4.507259875E0,-1.351539459E0,-5.481002197E0,-6.102060699E0,4.511024875E0,2.650863528E-1,6.260517240E-1,-4.715678096E-1
4.517303875E0,-1.396895142E0,-6.528523865E0,-6.714137878E0,4.521068875E0,8.015669882E-2,1.199612975E0,-4.056290090E-1
4.527346875E0,-1.890418854E0,-8.420289917E0,-6.837481384E0,4.531111875E0,1.383253373E-2,1.120260835E0,-2.732225060E-1
4.537390875E0,-3.084934845E0,-1.132110764E1,-6.252348175E0,4.541155875E0,-1.278218031E-1,5.490056276E-1,-1.725811362E-1
4.547434875E0,-4.697082367E0,-1.495689697E1,-6.352190552E0,4.551199875E0,-2.106243521E-1,3.728333861E-2,-3.344487846E-1
4.557478875E0,-5.044060822E0,-1.849134705E1,-6.421197052E0,4.561243875E0,2.668406814E-4,-3.285660148E-1,-3.998839855E-1
4.567521875E0,-5.076243896E0,-1.851918915E1,-5.690566406E0,4.571286875E0,-3.311904892E-2,-6.032350659E-1,-2.877659798E-1
4.577565875E0,-5.369334412E0,-1.523007889E1,-8.108188934E0,4.581330875E0,-5.673257709E-1,-4.634345472E-1,-1.843860447E-1
4.587609875E0,-4.231400757E0,-1.167107986E1,-1.151809799E1,4.591374875E0,-1.237885714E0,8.071681857E-2,-1.098997369E-1
4.597652875E0,-2.828967133E0,-8.937015381E0,-1.174352921E1,4.601417875E0,-1.546645641E0,4.132945240E-1,5.606819317E-2
4.607696875E0,-2.821482697E0,-8.184979248E0,-8.409212952E0,4.611461875E0,-1.487171769E0,4.337362051E-1,5.339299142E-2
4.617740875E0,-2.199825439E0,-9.662855988E0,-5.822591858E0,4.621505875E0,-1.204658628E0,2.650302947E-1,-4.166454822E-2
4.627783875E0,-2.003733215E0,-1.218181778E1,-5.046755219E0,4.631548875E0,-8.214126229E-1,3.564921916E-1,-8.796286583E-2
4.637827875E0,-2.994073792E0,-1.432371368E1,-4.121080170E0,4.641592875E0,-5.260997415E-1,4.397239387E-1,-3.929519653E-2
4.647871875E0,-4.846920776E0,-1.494537094E1,-3.073857880E0,4.651636875E0,-1.367983818E-1,1.563927829E-1,-5.391588807E-2
4.657914875E0,-5.791456604E0,-1.332304459E1,-1.798509979E0,4.661679875E0,1.208336949E-1,-2.872247249E-3,-8.075149357E-2
4.667958875E0,-5.973178711E0,-1.048150360E1,-1.619931335E0,4.671723875E0,2.627145052E-1,-1.505904943E-1,-1.357468218E-2
4.678002875E0,-6.803651733E0,-8.656498718E0,-2.312690735E0,4.681767875E0,3.915009797E-1,-1.231040135E-1,7.608675957E-2
4.688045875E0,-6.980733490E0,-7.793393555E0,-2.378404083E0,4.691810875E0,4.576514065E-1,-1.301226020E-1,1.864575595E-1
4.698089875E0,-6.534810791E0,-7.141948242E0,-2.436034241E0,4.701854875E0,4.640294015E-1,-3.656747043E-1,3.385003805E-1
4.708133875E0,-5.706732788E0,-7.081773376E0,-2.118544464E0,4.711898875E0,5.078853965E-1,-7.100272775E-1,5.332425833E-1
4.718177875E0,-4.691543884E0,-7.342381439E0,-1.086889801E0,4.721942875E0,7.348445058E-1,-8.558502793E-1,6.824586987E-1
4.728220875E0,-3.240760803E0,-7.576793976E0,5.783972168E-1,4.731985875E0,1.088420391E0,-7.141343951E-1,6.811606288E-1
4.738264875E0,-1.486109619E0,-7.737260284E0,1.943708038E0,4.742029875E0,1.364123702E0,-5.362248421E-1,6.229867935E-1
4.748308875E0,-4.941224670E-1,-8.063581696E0,1.962119751E0,4.752073875E0,1.474008083E0,-4.830504656E-1,5.591858029E-1
4.758351875E0,-1.678010559E-1,-8.576115875E0,1.039887543E0,4.762116875E0,1.503973961E0,-4.464687407E-1,4.792349935E-1
4.768395875E0,-1.435514832E-1,-9.035809937E0,3.460803223E-1,4.772160875E0,1.520588636E0,-3.082189262E-1,4.703141451E-1
4.778439875E0,-1.217418365E0,-9.321416016E0,-3.023712158E-1,4.782204875E0,1.501185656E0,-1.406911910E-1,5.063543916E-1
4.788482875E0,-2.726580048E0,-8.965905304E0,-1.366208954E0,4.792247875E0,1.463753104E0,3.255863115E-2,5.860516429E-1
4.798526875E0,-4.320914612E0,-8.425828400E0,-2.152074738E0,4.802291875E0,1.468152642E0,1.162396744E-1,6.495720148E-1
4.808570875E0,-5.178181915E0,-8.032147064E0,-2.525398407E0,4.812335875E0,1.548526883E0,1.680902541E-1,6.692721844E-1
4.818613875E0,-5.287005615E0,-7.820487213E0,-2.355202332E0,4.822378875E0,1.681107044E0,2.612580061E-1,6.055773497E-1
4.828657875E0,-4.904401245E0,-7.655679932E0,-1.772464142E0,4.832422875E0,1.812473774E0,4.018880427E-1,4.828659296E-1
4.838701875E0,-4.374503174E0,-7.439679108E0,-1.252595215E0,4.842466875E0,1.909455180E0,4.961013496E-1,3.323115706E-1
4.848744875E0,-3.837420044E0,-7.169191589E0,-9.598040771E-1,4.852509875E0,1.926217318E0,4.945257902E-1,2.115755826E-1
4.858788875E0,-3.394640808E0,-6.730004883E0,-1.082099762E0,4.862553875E0,1.867527366E0,4.615524113E-1,1.428417861E-1
4.868832875E0,-3.255579987E0,-6.077661438E0,-1.412313080E0,4.872597875E0,1.739763498E0,4.501316547E-1,1.692540348E-1
4.878876875E0,-3.384461975E0,-5.580545197E0,-1.849254456E0,4.882641875E0,1.593542933E0,4.343154132E-1,2.303711921E-1
4.888919875E0,-3.284769287E0,-5.328170013E0,-2.050136719E0,4.892684875E0,1.458453178E0,3.831480443E-1,2.846999466E-1
4.898963875E0,-2.888543243E0,-5.437891846E0,-1.954186249E0,4.902728875E0,1.310813665E0,2.347506136E-1,3.307683468E-1
4.909007875E0,-2.527494049E0,-6.149062958E0,-1.680854645E0,4.912772875E0,1.192518473E0,2.185295522E-2,3.790456355E-1
4.919050875E0,-2.247875519E0,-7.057074738E0,-1.266366577E0,4.922815875E0,1.120832801E0,-1.453030109E-1,3.846798241E-1
4.929094875E0,-1.783391418E0,-7.793692932E0,-1.050964508E0,4.932859875E0,1.117056966E0,-1.684012860E-1,3.745009899E-1
4.939138875E0,-1.412762146E0,-8.390801239E0,-1.177451477E0,4.942903875E0,1.168151379E0,-4.054905474E-2,3.688439131E-1
4.949181875E0,-1.301693115E0,-8.859476624E0,-1.392853546E0,4.952946875E0,1.200380564E0,1.680965126E-1,3.878398240E-1
4.959225875E0,-1.434616699E0,-9.201515350E0,-1.770667877E0,4.962990875E0,1.159227490E0,3.404070437E-1,4.258122146E-1
4.969269875E0,-1.635049896E0,-9.448202362E0,-2.306553497E0,4.973034875E0,1.038794518E0,4.419477582E-1,4.690251946E-1
4.979312875E0,-2.008373566E0,-9.631720734E0,-2.706970825E0,4.983077875E0,8.666383028E-1,4.659955502E-1,5.254594088E-1
4.989356875E0,-2.366428986E0,-9.704619141E0,-2.882705383E0,4.993121875E0,7.066161633E-1,4.707437158E-1,6.024468541E-1
4.999400875E0,-2.597099304E0,-9.708810425E0,-2.774330750E0,5.003165875E0,5.899763703E-1,4.662040770E-1,6.865577698E-1
5.009443875E0,-2.531236267E0,-9.757908325E0,-2.666255493E0,5.013208875E0,4.783554077E-1,4.339848459E-1,7.482182980E-1
5.019487875E0,-2.268382874E0,-9.872120819E0,-2.745440826E0,5.023252875E0,3.631209433E-1,3.794627488E-1,7.505224943E-1
5.029531875E0,-2.025288391E0,-9.857301636E0,-2.838098145E0,5.033296875E0,2.931986451E-1,3.097679317E-1,6.940138936E-1
5.039575875E0,-1.868264923E0,-9.531578979E0,-2.737806702E0,5.043340875E0,2.561218739E-1,1.792397499E-1,6.081809998E-1
5.049618875E0,-1.539548492E0,-9.136101379E0,-2.454146576E0,5.053383875E0,2.700946033E-1,3.654060140E-2,5.110883117E-1
5.059662875E0,-1.184337158E0,-8.981173553E0,-2.063309326E0,5.063427875E0,2.948912978E-1,-1.349166334E-1,4.089925885E-1
5.069706875E0,-4.665797424E-1,-9.338031464E0,-1.868564301E0,5.073471875E0,3.197865784E-1,-2.975662053E-1,3.205963373E-1
5.079749875E0,1.986369324E-1,-9.971963196E0,-1.736239471E0,5.083514875E0,3.434985876E-1,-5.043380260E-1,2.052433789E-1
5.089793875E0,7.161108398E-1,-1.069106781E1,-1.913021851E0,5.093558875E0,3.608961999E-1,-7.107339501E-1,6.545595825E-2
5.099837875E0,1.013392639E0,-1.115375565E1,-2.302960968E0,5.103602875E0,3.818222582E-1,-8.140789866E-1,-3.902677819E-2
5.109880875E0,5.739065552E-1,-1.119596786E1,-2.874771881E0,5.113645875E0,4.339066744E-1,-7.533220053E-1,-1.189492270E-1
5.119924875E0,-5.601351929E-1,-1.108295288E1,-3.255430298E0,5.123689875E0,4.657085538E-1,-6.540728807E-1,-1.652437449E-1
5.129968875E0,-1.974693604E0,-1.103445374E1,-3.251837769E0,5.133733875E0,3.948222101E-1,-6.429606080E-1,-2.468103617E-1
5.140011875E0,-3.022963715E0,-1.117875366E1,-2.863096161E0,5.143776875E0,2.615954578E-1,-6.732168198E-1,-3.725286126E-1
5.150055875E0,-4.262835388E0,-1.209559708E1,-2.580184479E0,5.153820875E0,2.076179087E-1,-5.306507349E-1,-4.601263106E-1
5.160099875E0,-5.428760834E0,-1.346195572E1,-2.233804779E0,5.163864875E0,1.491252929E-1,-2.792137265E-1,-4.316089153E-1
5.170142875E0,-6.044280853E0,-1.374741211E1,-1.938618622E0,5.173907875E0,4.364928603E-2,-4.757208377E-2,-4.318444133E-1
5.180186875E0,-5.795348511E0,-1.222552689E1,-1.695823517E0,5.183951875E0,-1.354509741E-1,5.465441942E-2,-4.634870291E-1
5.190230875E0,-5.215454407E0,-1.086186264E1,-1.072070618E0,5.193995875E0,-3.624972999E-1,3.779874742E-2,-5.015884638E-1
5.200274875E0,-4.705914001E0,-1.069466034E1,-4.550537109E-2,5.204039875E0,-6.076290011E-1,-4.776834697E-2,-5.799093843E-1
5.210317875E0,-3.906875610E0,-1.070244415E1,1.056502991E0,5.214082875E0,-9.633884430E-1,-9.212700278E-2,-6.979302764E-1
5.220361875E0,-3.485202484E0,-1.047087570E1,1.235231323E0,5.224126875E0,-1.255868435E0,-1.008017212E-1,-8.469016552E-1
5.230405875E0,-3.748355255E0,-1.017314484E1,1.631756744E0,5.234170875E0,-1.486957192E0,-8.117613196E-2,-1.018880606E0
5.240448875E0,-4.323758698E0,-9.951156464E0,1.251846771E0,5.244213875E0,-1.700368285E0,-7.165552117E-3,-1.196329951E0
5.250492875E0,-4.858297119E0,-9.771080933E0,4.734654236E-1,5.254257875E0,-1.855904818E0,5.912776664E-2,-1.320729375E0
5.260536875E0,-5.507646790E0,-9.896370392E0,-4.799020386E-1,5.264301875E0,-2.008618832E0,3.415117860E-1,-1.458536267E0
5.270579875E0,-6.331084442E0,-1.045396088E1,-1.421893158E0,5.274344875E0,-2.094291687E0,7.755035162E-1,-1.527495027E0
5.280623875E0,-7.454947357E0,-1.146031815E1,-1.835932159E0,5.284388875E0,-2.058876753E0,1.095263600E0,-1.416179895E0
5.290667875E0,-8.838969269E0,-1.244092896E1,-1.874402161E0,5.294432875E0,-1.910961747E0,1.305754185E0,-1.129380345E0
5.300710875E0,-1.028825546E1,-1.310749283E1,-1.840722198E0,5.304475875E0,-1.698104858E0,1.391867399E0,-8.430643082E-1
5.310754875E0,-1.082129700E1,-1.304462357E1,-1.810934143E0,5.314519875E0,-1.347361922E0,1.456379890E0,-7.380161881E-1
5.320798875E0,-1.091500214E1,-1.228689926E1,-9.720785522E-1,5.324563875E0,-9.372394085E-1,1.387290359E0,-5.905867815E-1
5.330841875E0,-9.987680511E0,-1.154070099E1,-1.724414062E-1,5.334606875E0,-6.374189258E-1,1.107098579E0,-2.355151474E-1
5.340885875E0,-7.832312622E0,-1.056532928E1,4.300556946E-1,5.344650875E0,-4.623946846E-1,8.562567830E-1,8.733853698E-2
5.350929875E0,-5.759722595E0,-9.048832855E0,9.665400696E-1,5.354694875E0,-4.120736718E-1,7.866606116E-1,2.791731954E-1
5.360972875E0,-4.007765808E0,-8.012687531E0,7.960446167E-1,5.364737875E0,-3.664835691E-1,7.080557942E-1,2.553054094E-1
5.371016875E0,-1.971400452E0,-8.043224030E0,4.403842163E-1,5.374781875E0,-3.470020294E-1,5.830638409E-1,1.409868598E-1
5.381060875E0,-6.789880371E-1,-8.372988281E0,-5.182223511E-1,5.384825875E0,-3.776973784E-1,3.442792296E-1,1.174570248E-1
5.391104875E0,-6.203100586E-1,-8.225993958E0,-1.530716858E0,5.394869875E0,-6.057638526E-1,7.642914355E-2,1.256228387E-1
5.401147875E0,-4.616400146E-1,-7.845784607E0,-2.909948730E0,5.404912875E0,-9.162620902E-1,-2.833130360E-1,1.761872172E-1
5.411191875E0,-7.509883118E-1,-7.386689301E0,-3.313659210E0,5.414956875E0,-1.217337966E0,-7.461823821E-1,2.400675416E-1
5.421235875E0,-1.001866608E0,-6.923552399E0,-2.811004486E0,5.425000875E0,-1.507193685E0,-1.211336970E0,1.852295995E-1
5.431278875E0,-2.799179077E-2,-6.422993317E0,-2.300865326E0,5.435043875E0,-1.775264740E0,-1.636750698E0,5.764855444E-2
5.441322875E0,9.924362183E-1,-6.215075684E0,-2.079625397E0,5.445087875E0,-1.998765111E0,-2.018498182E0,-1.363291740E-1
5.451366208E0,1.698068848E0,-6.416107635E0,-2.184856567E0,5.455131208E0,-2.203886986E0,-2.243956327E0,-2.884825766E-1
5.461409208E0,1.815125427E0,-6.357579346E0,-2.345771942E0,5.465174208E0,-2.333941460E0,-2.291679382E0,-3.234094083E-1
5.471453208E0,1.455423431E0,-6.192622375E0,-2.411036224E0,5.475218208E0,-2.344121456E0,-2.199869633E0,-2.983339131E-1
5.481497208E0,5.376818848E-1,-5.800138550E0,-2.465373230E0,5.485262208E0,-2.178689957E0,-1.968843937E0,-2.739822268E-1
5.491540208E0,-6.228547668E-1,-5.220094757E0,-2.273472290E0,5.495305208E0,-1.862797976E0,-1.637931705E0,-2.851606607E-1
5.501584208E0,-1.604214020E0,-4.452940063E0,-2.065404968E0,5.505349208E0,-1.449277520E0,-1.269754171E0,-3.425355554E-1
5.511628208E0,-2.270927582E0,-3.586242371E0,-2.007625122E0,5.515393208E0,-1.033575416E0,-9.384380579E-1,-4.921205342E-1
5.521671208E0,-2.654280396E0,-2.977009277E0,-2.246678009E0,5.525436208E0,-6.565617919E-1,-6.614724994E-1,-6.654946804E-1
5.531715208E0,-3.234024811E0,-2.935545502E0,-2.407892761E0,5.535480208E0,-3.006100953E-1,-5.118495226E-1,-7.996714115E-1
5.541759208E0,-3.795656891E0,-3.356021118E0,-2.590812378E0,5.545524208E0,6.812347472E-2,-5.324059725E-1,-8.338176608E-1
5.551802208E0,-4.162094879E0,-4.098327484E0,-2.796784058E0,5.555567208E0,3.563788533E-1,-6.297969222E-1,-8.137093782E-1
5.561846208E0,-3.889960785E0,-4.638703766E0,-3.442990265E0,5.565611208E0,5.225020051E-1,-7.136443853E-1,-7.915511131E-1
5.571890208E0,-3.314707031E0,-4.838089142E0,-4.207600250E0,5.575655208E0,6.360051632E-1,-7.112797499E-1,-7.372891307E-1
5.581934208E0,-2.903362427E0,-4.842430115E0,-4.772824860E0,5.585699208E0,7.027325034E-1,-5.398555398E-1,-6.548126340E-1
5.591977208E0,-2.495161285E0,-4.685107269E0,-5.379064178E0,5.595742208E0,6.670722961E-1,-1.649406850E-1,-5.329488516E-1
5.602021208E0,-2.138602753E0,-4.984335022E0,-6.179300079E0,5.605786208E0,5.259098411E-1,3.579664826E-1,-4.396466017E-1
5.612065208E0,-1.758543091E0,-6.020779724E0,-6.857988739E0,5.615830208E0,3.789106309E-1,9.779984355E-1,-3.402388394E-1
5.622108208E0,-2.154170380E0,-7.919730835E0,-6.948849792E0,5.625873208E0,2.208701223E-1,1.117130756E0,-2.064147443E-1
5.632152208E0,-3.107537842E0,-1.096948883E1,-7.132667542E0,5.635917208E0,1.227550581E-1,7.971633673E-1,-7.747065276E-2
5.642196208E0,-4.440815277E0,-1.440858719E1,-6.573879547E0,5.645961208E0,4.435559735E-2,4.701316953E-1,-8.662900329E-2
5.652239208E0,-4.647385712E0,-1.673639648E1,-6.442153473E0,5.656004208E0,6.949923933E-2,1.941532344E-1,-1.556636542E-1
5.662283208E0,-3.474724274E0,-1.707139984E1,-6.311475220E0,5.666048208E0,1.107942089E-1,1.880671829E-2,-1.554250419E-1
5.672327208E0,-3.288361816E0,-1.546000076E1,-7.335346069E0,5.676092208E0,-1.958200186E-1,-4.601828381E-2,-7.911886275E-2
5.682370208E0,-3.498674469E0,-1.257340347E1,-1.011776001E1,5.686135208E0,-7.110338211E-1,1.059462130E-1,-6.853986066E-3
5.692414208E0,-2.683469696E0,-1.000010468E1,-1.129955246E1,5.696179208E0,-9.969500303E-1,2.553676367E-1,1.262868345E-1
5.702458208E0,-2.368973694E0,-8.830736389E0,-9.322463837E0,5.706223208E0,-9.048989415E-1,2.016553879E-1,1.906562299E-1
5.712501208E0,-2.040556641E0,-9.315428467E0,-5.872887268E0,5.716266208E0,-6.807687283E-1,2.942315042E-1,1.286121011E-1
5.722545208E0,-1.515747986E0,-1.109343109E1,-4.319717102E0,5.726310208E0,-6.105251908E-1,5.870519280E-1,1.313245296E-1
5.732589208E0,-2.482587433E0,-1.296439041E1,-4.632117462E0,5.736354208E0,-5.006095171E-1,7.707032561E-1,1.452014297E-1
5.742632208E0,-4.110152893E0,-1.354802673E1,-3.119213562E0,5.746397208E0,-2.250141799E-1,5.278935432E-1,1.365775764E-1
5.752676208E0,-6.079457703E0,-1.290197021E1,-1.868564301E0,5.756441208E0,-2.994565293E-2,2.945675254E-1,9.432225674E-2
5.762720208E0,-7.065606995E0,-1.179936310E1,-1.562450867E0,5.766485208E0,9.987279773E-2,3.696954623E-2,1.129156500E-1
5.772763208E0,-7.969726868E0,-1.092233688E1,-1.675914917E0,5.776528208E0,1.962895989E-1,-2.025327533E-1,1.651810110E-1
5.782807208E0,-7.894583130E0,-9.550439758E0,-2.194586334E0,5.786572208E0,2.236895263E-1,-2.704694271E-1,2.741975188E-1
5.792851208E0,-7.345674591E0,-7.993227997E0,-2.331701202E0,5.796616208E0,1.823952943E-1,-2.826562822E-1,3.872804344E-1
5.802894208E0,-6.443800049E0,-7.134763184E0,-2.111509094E0,5.806659208E0,2.837395072E-1,-2.640919089E-1,5.293906927E-1
5.812938208E0,-5.593568115E0,-7.079228668E0,-8.297245789E-1,5.816703208E0,5.875752568E-1,-2.411931306E-1,6.327452660E-1
5.822982208E0,-4.445006561E0,-7.297325134E0,8.689430237E-1,5.826747208E0,1.003373384E0,-1.827644408E-1,6.284146905E-1
5.833026208E0,-2.853067017E0,-7.513475647E0,2.044747925E0,5.836791208E0,1.353501201E0,-5.997461453E-2,5.080868006E-1
5.843069208E0,-1.488504639E0,-7.753875732E0,1.979333954E0,5.846834208E0,1.576346755E0,1.576706320E-1,3.791439831E-1
5.853113208E0,-8.873547363E-1,-8.249495087E0,1.308878174E0,5.856878208E0,1.704133153E0,3.250368536E-1,3.173648715E-1
5.863157208E0,-8.982820129E-1,-8.658145294E0,4.007167053E-1,5.866922208E0,1.758740902E0,4.732934535E-1,3.135405779E-1
5.873200208E0,-1.321751404E0,-8.895252228E0,-5.794450378E-1,5.876965208E0,1.770035505E0,6.609392166E-1,3.886765540E-1
5.883244208E0,-2.571203156E0,-8.997040558E0,-1.329984283E0,5.887009208E0,1.781870604E0,8.702194691E-1,5.152371526E-1
5.893288208E0,-4.095782776E0,-8.765771484E0,-1.795366516E0,5.897053208E0,1.780111074E0,9.701882601E-1,6.421349049E-1
5.903331208E0,-5.076842651E0,-8.603209534E0,-1.956431580E0,5.907096208E0,1.802869916E0,9.315530062E-1,7.065948248E-1
5.913375208E0,-5.228627014E0,-8.649912415E0,-1.668131104E0,5.917140208E0,1.828983426E0,8.563455343E-1,7.024017572E-1
5.923419208E0,-4.916376343E0,-8.522377625E0,-1.269659729E0,5.927184208E0,1.812834263E0,7.875973582E-1,6.205964088E-1
5.933462208E0,-4.323609009E0,-8.104746094E0,-1.083147583E0,5.937227208E0,1.760657310E0,6.959799528E-1,5.702187419E-1
5.943506208E0,-4.127067719E0,-7.608677673E0,-9.639953613E-1,5.947271208E0,1.727474570E0,6.095646024E-1,5.657758117E-1
5.953550208E0,-4.021088104E0,-7.002887421E0,-7.138655090E-1,5.957315208E0,1.721561670E0,5.949431658E-1,5.793999434E-1
5.963593208E0,-3.819607086E0,-6.439908142E0,-6.063890076E-1,5.967358208E0,1.681448579E0,6.340322495E-1,5.940550566E-1
5.973637208E0,-3.517684937E0,-6.243666229E0,-8.810678101E-1,5.977402208E0,1.625802994E0,6.962500215E-1,6.302082539E-1
5.983681208E0,-3.128344574E0,-6.515051880E0,-1.124761047E0,5.987446208E0,1.570850849E0,7.306354046E-1,6.055689454E-1
5.993724208E0,-2.415227509E0,-6.813231812E0,-1.028660889E0,5.997489208E0,1.514213920E0,7.313113809E-1,5.586830378E-1
6.003768208E0,-2.181114349E0,-7.313790894E0,-8.666976929E-1,6.007533208E0,1.441130638E0,6.719694734E-1,4.551481307E-1
6.013812208E0,-1.780846710E0,-7.873177643E0,-8.678952026E-1,6.017577208E0,1.366366386E0,6.141913533E-1,3.862339258E-1
6.023855208E0,-1.637594604E0,-8.420888672E0,-9.868977356E-1,6.027620208E0,1.322198868E0,6.035035253E-1,3.345955014E-1
6.033899208E0,-1.700613556E0,-8.832083588E0,-1.209035797E0,6.037664208E0,1.313494921E0,5.804573894E-1,2.966856062E-1
6.043943208E0,-1.708547058E0,-8.993448029E0,-1.424587555E0,6.047708208E0,1.268547416E0,5.660493970E-1,2.844648957E-1
6.053986208E0,-1.952689362E0,-8.958121490E0,-1.672023010E0,6.057751208E0,1.170708418E0,5.905857682E-1,3.273782432E-1
6.064030208E0,-2.385289764E0,-8.708440704E0,-1.792672119E0,6.067795208E0,1.051661968E0,6.237376332E-1,4.187236130E-1
6.074074208E0,-2.739004211E0,-8.214767303E0,-1.853894806E0,6.077839208E0,9.391467571E-1,6.578071713E-1,5.398091674E-1
6.084117208E0,-2.803669739E0,-7.802823944E0,-1.840123444E0,6.087882208E0,8.498640060E-1,6.491876245E-1,6.556923389E-1
6.094161208E0,-2.538720703E0,-7.605534210E0,-1.934427338E0,6.097926208E0,7.666698694E-1,6.496771574E-1,7.754261494E-1
6.104205208E0,-2.252515869E0,-7.640411682E0,-2.369422760E0,6.107970208E0,6.835352778E-1,6.260921955E-1,8.819326162E-1
6.114249208E0,-1.962718506E0,-7.986791382E0,-2.949616241E0,6.118014208E0,6.190600395E-1,5.482424498E-1,9.575313330E-1
6.124292208E0,-1.384171600E0,-8.615334320E0,-3.204685822E0,6.128057208E0,5.430142879E-1,4.614537656E-1,9.402836561E-1
6.134336208E0,-5.480104065E-1,-9.260343018E0,-3.240760803E0,6.138101208E0,4.790610969E-1,4.081321955E-1,8.481755257E-1
6.144380208E0,-3.847000122E-2,-9.729766846E0,-3.035687256E0,6.148145208E0,4.468109906E-1,3.436693251E-1,7.476841211E-1
6.154423208E0,-3.047662354E-1,-9.908345490E0,-2.917882233E0,6.158188208E0,4.599946439E-1,2.559419870E-1,6.742890477E-1
6.164467208E0,-9.412426758E-1,-1.009695328E1,-2.848726044E0,6.168232208E0,4.500450790E-1,9.443988651E-2,5.925121903E-1
6.174511208E0,-8.851094055E-1,-1.053389465E1,-2.428400116E0,6.178276208E0,4.099637866E-1,-8.637577295E-2,4.975754917E-1
6.184554208E0,-8.384065247E-1,-1.083372116E1,-1.854942627E0,6.188319208E0,3.948721886E-1,-3.010784686E-1,3.907414377E-1
6.194598208E0,-6.791377258E-1,-1.080542999E1,-2.015408936E0,6.198363208E0,4.049537480E-1,-4.912266433E-1,3.098075688E-1
6.204642208E0,-3.841012573E-1,-1.051368668E1,-2.792592773E0,6.208407208E0,4.358698428E-1,-5.821792483E-1,2.366683632E-1
6.214685208E0,-1.974394226E-1,-1.049123337E1,-3.500021667E0,6.218450208E0,4.871813953E-1,-5.628615022E-1,1.361426711E-1
6.224729208E0,-5.040019226E-1,-1.069151688E1,-3.804189148E0,6.228494208E0,5.341553092E-1,-5.021664500E-1,4.838858172E-2
6.234773208E0,-1.311572571E0,-1.094688583E1,-4.051474915E0,6.238538208E0,5.579445362E-1,-4.550154805E-1,-5.202913657E-2
6.244816208E0,-1.928888855E0,-1.112815887E1,-3.539240112E0,6.248581208E0,4.602147937E-1,-5.975303054E-1,-1.772200763E-1
6.254860208E0,-2.451601868E0,-1.156210648E1,-2.568658447E0,6.258625208E0,3.149855733E-1,-7.210173011E-1,-2.331002653E-1
6.264904208E0,-3.381168823E0,-1.239123230E1,-2.342179413E0,6.268669208E0,2.228154093E-1,-6.181130409E-1,-2.461867630E-1
6.274947208E0,-3.748355255E0,-1.301124298E1,-2.110311584E0,6.278712208E0,1.486166120E-1,-3.539486527E-1,-3.330452740E-1
6.284991208E0,-3.930975494E0,-1.257654694E1,-1.861079865E0,6.288756208E0,2.755266847E-3,-2.146722525E-1,-4.539487958E-1
6.295035208E0,-4.605472870E0,-1.179277679E1,-1.368753662E0,6.298800208E0,-2.167112231E-1,-1.280450672E-1,-5.246949196E-1
6.305078208E0,-5.070406036E0,-1.158066788E1,-3.983216858E-1,6.308843208E0,-5.183549523E-1,-1.115617007E-1,-6.005499959E-1
6.315122208E0,-4.582570496E0,-1.139490417E1,9.157955933E-1,6.318887208E0,-8.126762509E-1,-1.043230221E-1,-7.044233084E-1
6.325166208E0,-4.211492157E0,-1.099972595E1,1.793420563E0,6.328931208E0,-1.097149253E0,-1.079806089E-1,-8.695158958E-1
6.335209208E0,-4.258045349E0,-1.074540482E1,1.475481720E0,6.338974208E0,-1.338412523E0,-3.438852355E-2,-1.064636946E0
6.345253208E0,-4.717140656E0,-1.065364563E1,1.334175568E0,6.349018208E0,-1.538189650E0,7.925814390E-2,-1.267386675E0
6.355297208E0,-5.016218719E0,-1.028062134E1,1.202000427E0,6.359062208E0,-1.769941449E0,1.943672597E-1,-1.403401732E0
6.365340208E0,-5.296885071E0,-9.989177399E0,2.607577515E-1,6.369105208E0,-2.031200647E0,2.574607432E-1,-1.466106653E0
6.375384208E0,-6.158343658E0,-1.024155258E1,-5.888754272E-1,6.379149208E0,-2.215071440E0,2.604773045E-1,-1.426054239E0
6.385428208E0,-7.194039917E0,-1.093865295E1,-8.244854736E-1,6.389193208E0,-2.249589682E0,2.687037587E-1,-1.282932162E0
6.395471208E0,-8.061486053E0,-1.176224030E1,-4.619393921E-1,6.399236208E0,-2.137257099E0,3.881446123E-1,-1.066810250E0
6.405515208E0,-8.934620361E0,-1.217418365E1,-1.499880981E-1,6.409280208E0,-1.892656803E0,6.025684476E-1,-8.754062057E-1
6.415559208E0,-9.789941711E0,-1.219798416E1,-8.577163696E-2,6.419324208E0,-1.572312593E0,8.343766928E-1,-7.304702997E-1
6.425602208E0,-1.010743149E1,-1.222492813E1,-2.921923828E-1,6.429367208E0,-1.177601814E0,1.080254912E0,-5.501609445E-1
6.435646208E0,-9.537716217E0,-1.216864517E1,-1.625619507E-1,6.439411208E0,-8.240172267E-1,1.191355705E0,-3.160415292E-1
6.445690208E0,-7.952961731E0,-1.169667664E1,-5.104385376E-2,6.449455208E0,-5.841969252E-1,1.137349725E0,-7.860340923E-2
6.455733583E0,-6.171366577E0,-1.086395828E1,6.137237549E-3,6.459498583E0,-4.805008769E-1,1.107141137E0,1.271428466E-1
6.465777583E0,-4.748575287E0,-1.010473709E1,-7.229965210E-2,6.469542583E0,-4.522729814E-1,1.067081094E0,1.914254278E-1
6.475821583E0,-3.212319946E0,-9.387428741E0,3.996688843E-2,6.479586583E0,-5.492225289E-1,9.233993292E-1,1.200086325E-1
6.485865583E0,-1.588347015E0,-9.148525543E0,-5.351371765E-1,6.489630583E0,-6.716006398E-1,6.506999135E-1,9.790918976E-2
6.495908583E0,-1.133592682E0,-9.082213440E0,-1.097667389E0,6.499673583E0,-8.745531440E-1,3.044324815E-1,1.176769435E-1
6.505952583E0,-9.985734558E-1,-8.681347046E0,-2.226919098E0,6.509717583E0,-1.154006362E0,-1.067705005E-1,2.052520663E-1
6.515996583E0,-1.228495331E0,-8.005352783E0,-3.058739319E0,6.519761583E0,-1.383154035E0,-5.068958402E-1,2.518291771E-1
6.526039583E0,-1.075962524E0,-7.616910553E0,-2.642904053E0,6.529804583E0,-1.587726593E0,-8.117591143E-1,2.312722504E-1
6.536083583E0,-4.670288086E-1,-7.173682251E0,-2.192341003E0,6.539848583E0,-1.761046648E0,-1.101095676E0,1.331736892E-1
6.546127583E0,3.724255371E-1,-6.915469208E0,-2.010020142E0,6.549892583E0,-1.925429940E0,-1.475846887E0,-4.693109542E-2
6.556170583E0,1.004261627E0,-6.811734924E0,-2.178120575E0,6.559935583E0,-2.069709063E0,-1.836252213E0,-2.383069694E-1
6.566214583E0,1.523082733E0,-6.621181183E0,-2.220781860E0,6.569979583E0,-2.141232729E0,-2.116059303E0,-3.297742903E-1
6.576258583E0,1.035097504E0,-6.422394562E0,-2.215243378E0,6.580023583E0,-2.126933098E0,-2.224032879E0,-3.634659946E-1
6.586301583E0,1.091230774E-1,-5.961652679E0,-2.393223267E0,6.590066583E0,-2.034121275E0,-2.114061356E0,-3.553859890E-1
6.596345583E0,-6.474037170E-1,-5.063670044E0,-2.273921356E0,6.600110583E0,-1.839367747E0,-1.868234396E0,-3.639143705E-1
6.606389583E0,-1.111438751E0,-3.962559814E0,-1.846859436E0,6.610154583E0,-1.522968769E0,-1.570970297E0,-4.260235429E-1
6.616432583E0,-1.638193359E0,-3.053949280E0,-1.491498413E0,6.620197583E0,-1.127737045E0,-1.246187091E0,-5.188863277E-1
6.626476583E0,-2.196532288E0,-2.480940857E0,-1.452130280E0,6.630241583E0,-7.472376823E-1,-1.005343318E0,-6.411709785E-1
6.636520583E0,-2.629132690E0,-2.180665283E0,-1.800455933E0,6.640285583E0,-3.624555469E-1,-9.070008397E-1,-7.376408577E-1
6.646563583E0,-2.994822235E0,-2.242187347E0,-2.246079254E0,6.650328583E0,3.345554322E-2,-9.248805046E-1,-7.688264847E-1
6.656607583E0,-3.254831543E0,-2.655777283E0,-2.753973083E0,6.660372583E0,3.436084688E-1,-9.025182724E-1,-7.663748860E-1
6.666651583E0,-3.217409363E0,-3.125051422E0,-3.583997040E0,6.670416583E0,5.938407183E-1,-8.379445672E-1,-7.326675057E-1
6.676694583E0,-3.047812042E0,-3.690575409E0,-4.323609009E0,6.680459583E0,7.473215461E-1,-8.023470044E-1,-6.934067011E-1
6.686738583E0,-2.421664124E0,-4.119583282E0,-5.266049194E0,6.690503583E0,7.272285223E-1,-5.364676118E-1,-5.833027959E-1
6.696782583E0,-2.165097656E0,-4.576582947E0,-5.937253418E0,6.700547583E0,5.159214735E-1,-6.590986997E-2,-4.209808111E-1
6.706825583E0,-1.878743134E0,-5.386997681E0,-6.509962463E0,6.710590583E0,2.327587157E-1,3.766502142E-1,-2.396333963E-1
6.716869583E0,-1.766476593E0,-6.673123169E0,-6.901548157E0,6.720634583E0,-4.876092076E-2,5.369447470E-1,-1.045194343E-1
6.726913583E0,-1.754651184E0,-9.010362854E0,-7.098538513E0,6.730678583E0,-2.434172183E-1,3.263697028E-1,-2.369169518E-2
6.736956583E0,-2.039957886E0,-1.227911545E1,-6.624324646E0,6.740721583E0,-3.082624674E-1,-1.553068161E-1,2.203897759E-2
6.747000583E0,-3.108136597E0,-1.552960602E1,-5.757327576E0,6.750765583E0,-2.933320105E-1,-4.327898324E-1,-9.999158978E-2
6.757044583E0,-3.213068390E0,-1.775877045E1,-5.309009857E0,6.760809583E0,-1.561576128E-1,-4.416690767E-1,-2.013301849E-1
6.767087583E0,-3.354224854E0,-1.706616074E1,-5.228627014E0,6.770852583E0,-1.209040210E-1,-4.526948333E-1,-1.533461511E-1
6.777131583E0,-4.019740906E0,-1.423898987E1,-7.000791779E0,6.780896583E0,-4.346454144E-1,-3.192420602E-1,-1.084519252E-1
6.787175583E0,-3.713477783E0,-1.106199646E1,-9.638905792E0,6.790940583E0,-1.047504067E0,8.030322194E-2,-1.425092369E-1
6.797218583E0,-2.978955231E0,-9.023984528E0,-1.100421661E1,6.800983583E0,-1.547214508E0,4.133017063E-1,-6.223520637E-2
6.807262583E0,-3.553610229E0,-9.615404663E0,-9.379495239E0,6.811027583E0,-1.689340234E0,5.845451355E-1,-6.631783396E-2
6.817306583E0,-3.888613586E0,-1.088506439E1,-7.096891937E0,6.821071583E0,-1.475185394E0,5.147260427E-1,-1.250233501E-1
6.827349583E0,-3.909869385E0,-1.311318100E1,-5.113666077E0,6.831114583E0,-1.046307802E0,5.131753087E-1,-1.664373726E-1
6.837393583E0,-4.163891144E0,-1.500674332E1,-2.585573273E0,6.841158583E0,-6.891407967E-1,6.837087274E-1,-1.454490721E-1
6.847437583E0,-5.381608887E0,-1.545565979E1,-1.582808533E0,6.851202583E0,-2.235822082E-1,3.307938278E-1,-1.399344653E-1
6.857480583E0,-6.218817902E0,-1.405816589E1,-1.143621826E0,6.861245583E0,1.871033162E-1,-1.538132429E-1,-6.566610187E-2
6.867524583E0,-6.556365967E0,-1.098296082E1,-1.476080475E0,6.871289583E0,3.741792142E-1,-3.121245503E-1,4.513578489E-2
6.877568583E0,-6.875502319E0,-7.770940247E0,-2.334994354E0,6.881333583E0,4.146367610E-1,-1.423459947E-1,1.859417558E-1
6.887611583E0,-7.011120300E0,-5.923781433E0,-2.858755188E0,6.891376583E0,4.149339795E-1,7.557648420E-2,3.085813820E-1
6.897655583E0,-6.556365967E0,-5.655838623E0,-3.198398895E0,6.901420583E0,4.364141524E-1,7.961513102E-2,4.016890824E-1
6.907699583E0,-5.725743256E0,-5.826334076E0,-2.605481873E0,6.911464583E0,5.196373463E-1,-1.006060392E-1,5.038966537E-1
6.917742583E0,-4.695735168E0,-5.988147583E0,-1.425635376E0,6.921507583E0,6.979671717E-1,-2.547511756E-1,5.817201138E-1
6.927786583E0,-3.477568359E0,-6.320755920E0,1.962419128E-1,6.931551583E0,9.762486219E-1,-2.828373909E-1,5.666458011E-1
6.937830583E0,-2.100432129E0,-6.966063995E0,1.807042236E0,6.941595583E0,1.231030464E0,-2.702976763E-1,4.215370417E-1
6.947873583E0,-7.268884277E-1,-7.975415039E0,2.170486450E0,6.951638583E0,1.366559267E0,-3.203238249E-1,2.695201039E-1
6.957917583E0,1.056802368E-1,-9.317524109E0,1.295106812E0,6.961682583E0,1.469114780E0,-2.627439201E-1,1.710891575E-1
6.967961583E0,4.715194702E-2,-1.047865952E1,4.918771362E-1,6.971726583E0,1.527507544E0,-1.590937078E-1,1.954142004E-1
6.978004583E0,-1.189875641E0,-1.102681961E1,-4.378395081E-1,6.981769583E0,1.489097238E0,-9.894643724E-2,2.832867801E-1
6.988048583E0,-2.671344910E0,-1.097083603E1,-1.553469543E0,6.991813583E0,1.390693188E0,-4.258888215E-2,4.070481360E-1
6.998092583E0,-4.131857758E0,-1.031475037E1,-2.171384583E0,7.001857583E0,1.289175034E0,-2.550363913E-2,5.231199265E-1
7.008135583E0,-4.976700897E0,-9.521400146E0,-2.392624512E0,7.011900583E0,1.311920881E0,7.159601152E-2,5.904377103E-1
7.018179583E0,-5.293741608E0,-8.905730438E0,-1.999242554E0,7.021944583E0,1.508542061E0,2.597751617E-1,5.869510174E-1
7.028223583E0,-4.983736267E0,-8.387358398E0,-1.154249725E0,7.031988583E0,1.698940039E0,3.731182218E-1,5.156180263E-1
7.038266583E0,-4.342918854E0,-8.040529633E0,-1.271306305E0,7.042031583E0,1.797015071E0,4.655436277E-1,4.430943429E-1
7.048310583E0,-4.166435852E0,-7.777227173E0,-1.409169617E0,7.052075583E0,1.814864397E0,5.128725171E-1,3.540534079E-1
7.058354583E0,-3.900289307E0,-7.142247620E0,-1.198108521E0,7.062119583E0,1.742529988E0,4.615376294E-1,2.411090732E-1
7.068397583E0,-3.462449799E0,-6.505621490E0,-1.248254242E0,7.072162583E0,1.601428032E0,3.539435267E-1,1.631706059E-1
7.078441583E0,-3.175047455E0,-5.919590149E0,-1.372495880E0,7.082206583E0,1.437106013E0,2.346255630E-1,1.616095454E-1
7.088485583E0,-2.988086243E0,-5.484295349E0,-1.460812225E0,7.092250583E0,1.300615072E0,1.763433516E-1,1.833433360E-1
7.098529583E0,-2.662513275E0,-5.254223785E0,-1.402134247E0,7.102294583E0,1.226353526E0,1.638362408E-1,2.213461101E-1
7.108572583E0,-2.516267395E0,-5.345234528E0,-1.217268677E0,7.112337583E0,1.218573093E0,1.430926025E-1,2.965415120E-1
7.118616583E0,-2.638862457E0,-5.795947266E0,-9.862989807E-1,7.122381583E0,1.224458694E0,1.088921726E-1,3.855218589E-1
7.128659583E0,-2.809208221E0,-6.465654602E0,-8.217910767E-1,7.132424583E0,1.250951529E0,7.625566423E-2,4.620911777E-1
7.138703583E0,-2.841540985E0,-7.181166687E0,-5.917195129E-1,7.142468583E0,1.304256678E0,5.487712100E-2,4.973084927E-1
7.148747583E0,-2.763852539E0,-7.880063324E0,-4.623884583E-1,7.152512583E0,1.374355078E0,2.204301208E-2,5.298885107E-1
7.158791583E0,-2.815495148E0,-8.565637665E0,-6.092330933E-1,7.162556583E0,1.415065765E0,3.622277174E-3,5.737278461E-1
7.168834583E0,-2.890489197E0,-8.988508301E0,-1.115630035E0,7.172599583E0,1.336100101E0,7.643283904E-2,6.055465341E-1
7.178878583E0,-2.897823944E0,-9.189989319E0,-2.173031158E0,7.182643583E0,1.143246770E0,2.381137311E-1,6.179085970E-1
7.188922583E0,-2.865341492E0,-9.355694733E0,-3.275787964E0,7.192687583E0,9.272521734E-1,4.846236408E-1,6.250171065E-1
7.198965583E0,-2.878214722E0,-9.436526642E0,-3.683989105E0,7.202730583E0,7.420873046E-1,7.035714984E-1,6.534757018E-1
7.209009583E0,-2.879561920E0,-9.485624542E0,-3.503464508E0,7.212774583E0,6.315611005E-1,8.286535144E-1,6.930305362E-1
7.219053583E0,-2.602338409E0,-9.580227814E0,-2.942131805E0,7.222818583E0,5.499727726E-1,8.212630153E-1,7.202106714E-1
7.229096583E0,-2.138003998E0,-9.669891357E0,-2.439327393E0,7.232861583E0,4.715629518E-1,7.012404799E-1,7.179637551E-1
7.239140583E0,-1.639839935E0,-9.594448242E0,-2.422562256E0,7.242905583E0,4.180929363E-1,6.044484377E-1,7.147148848E-1
7.249184583E0,-1.547332306E0,-9.360634460E0,-2.475701752E0,7.252949583E0,3.985836804E-1,5.112628341E-1,6.905323267E-1
7.259227583E0,-1.695374451E0,-9.257648621E0,-2.486179962E0,7.262992583E0,4.041286111E-1,3.747705817E-1,6.537266374E-1
7.269271583E0,-1.550625458E0,-9.448651428E0,-2.291285248E0,7.273036583E0,3.967764080E-1,2.430386543E-1,6.032701135E-1
7.279315583E0,-1.231189728E0,-9.767638092E0,-2.035766602E0,7.283080583E0,3.444834054E-1,7.573695481E-2,5.080543756E-1
7.289358583E0,-5.554948425E-1,-1.028316605E1,-1.784588928E0,7.293123583E0,3.335729837E-1,-9.656503797E-2,3.804503381E-1
7.299402583E0,3.614982605E-1,-1.066008224E1,-1.571132813E0,7.303167583E0,3.696881235E-1,-2.202691734E-1,2.242519706E-1
7.309446583E0,1.041983185E0,-1.060799057E1,-2.015708313E0,7.313211583E0,4.105825424E-1,-2.886154652E-1,9.062999487E-2
7.319489583E0,8.897497559E-1,-1.034813095E1,-2.763852539E0,7.323254583E0,4.661785662E-1,-2.832731903E-1,-2.141494676E-2
7.329533583E0,9.999206543E-2,-1.021326141E1,-3.235970764E0,7.333298583E0,5.120557547E-1,-2.063789517E-1,-1.475007087E-1
7.339577583E0,-8.472381592E-1,-1.031340317E1,-3.039579163E0,7.343342583E0,4.066019058E-1,-2.696180344E-1,-2.938452661E-1
7.349620583E0,-2.049088898E0,-1.095751373E1,-2.469414825E0,7.353385583E0,2.484956384E-1,-3.851081431E-1,-4.246477485E-1
7.359664583E0,-3.841311951E0,-1.220127731E1,-2.362237701E0,7.363429583E0,1.898690164E-1,-2.824368775E-1,-4.403776228E-1
7.369708583E0,-4.956343231E0,-1.339220078E1,-2.217638397E0,7.373473583E0,1.395184994E-1,-2.933937311E-2,-4.495956302E-1
7.379751583E0,-5.101541290E0,-1.335253326E1,-2.003134460E0,7.383516583E0,6.323397905E-2,1.388277709E-1,-5.238819718E-1
7.389795583E0,-5.216352539E0,-1.209410019E1,-1.521286469E0,7.393560583E0,-6.118038297E-2,2.598053217E-1,-6.155279875E-1
7.399839583E0,-5.078489227E0,-1.115255814E1,-1.086740112E0,7.403604583E0,-2.460810691E-1,3.371411264E-1,-6.612429619E-1
7.409882583E0,-5.013075256E0,-1.090617050E1,-2.912942505E-1,7.413647583E0,-4.468922019E-1,2.566814423E-1,-7.186263800E-1
7.419926583E0,-4.433929596E0,-1.071037766E1,4.058061218E-1,7.423691583E0,-7.715061903E-1,2.055596113E-1,-8.021271825E-1
7.429970583E0,-4.113595734E0,-1.062206131E1,5.364843750E-1,7.433735583E0,-1.102407694E0,2.131333649E-1,-9.186921716E-1
7.440013583E0,-4.454137573E0,-1.037492523E1,7.694000244E-1,7.443778583E0,-1.324465752E0,2.602557540E-1,-1.067891479E0
7.450058000E0,-4.768783264E0,-9.636660461E0,9.313632202E-1,7.453823000E0,-1.495790362E0,3.846208453E-1,-1.182802320E0
7.460102000E0,-5.363346863E0,-9.204060059E0,5.522016907E-1,7.463867000E0,-1.678452611E0,5.855295062E-1,-1.317258120E0
7.470145000E0,-5.643564148E0,-8.863069153E0,-2.143542480E-1,7.473910000E0,-1.788136005E0,8.035560846E-1,-1.429022193E0
7.480189000E0,-6.059249725E0,-8.742869110E0,-8.195457458E-1,7.483954000E0,-1.826775074E0,1.071144819E0,-1.476066709E0
7.490233000E0,-6.978637848E0,-9.586514740E0,-1.521585846E0,7.493998000E0,-1.807531595E0,1.363838673E0,-1.452944398E0
7.500276000E0,-8.125852203E0,-1.098071548E1,-2.181413727E0,7.504041000E0,-1.679083943E0,1.645656347E0,-1.320875645E0
7.510320000E0,-9.720785522E0,-1.224483673E1,-2.351460114E0,7.514085000E0,-1.455250025E0,1.841759801E0,-1.101704478E0
7.520363000E0,-1.099792969E1,-1.296109726E1,-2.426005096E0,7.524128000E0,-1.142263055E0,1.957728982E0,-8.554464579E-1
7.530407000E0,-1.131152756E1,-1.324490707E1,-2.040406952E0,7.534172000E0,-7.749100924E-1,1.958053946E0,-5.560594797E-1
7.540451000E0,-1.003483246E1,-1.286335052E1,-1.066083069E0,7.544216000E0,-5.250430703E-1,1.684825182E0,-2.906669676E-1
7.550495000E0,-7.209308167E0,-1.157917099E1,-7.556286621E-1,7.554260000E0,-4.093683660E-1,1.359133124E0,5.625425838E-3
7.560538000E0,-5.488187256E0,-1.047312103E1,-6.020480347E-1,7.564303000E0,-3.558490276E-1,1.178210497E0,2.553232312E-1
7.570582000E0,-4.053121490E0,-9.654024353E0,-1.588197327E-1,7.574347000E0,-2.405264080E-1,1.037226796E0,2.508800030E-1
7.580626000E0,-1.493294678E0,-9.450747070E0,1.703457642E-1,7.584391000E0,-1.065821797E-1,9.352236390E-1,1.395673156E-1
7.590669000E0,5.987548828E-2,-9.675878906E0,-6.334826660E-1,7.594434000E0,-1.286187619E-1,6.498718262E-1,1.569004953E-1
7.600713000E0,-2.487826538E-1,-9.613159332E0,-2.332000580E0,7.604478000E0,-4.374257922E-1,3.350442350E-1,2.148790210E-1
7.610757000E0,-3.550616455E-1,-8.940757599E0,-4.040248260E0,7.614522000E0,-8.509542346E-1,-9.906221926E-2,3.124548197E-1
7.620800000E0,-4.486170959E-1,-8.086783447E0,-4.342020721E0,7.624565000E0,-1.184461713E0,-5.826828480E-1,4.063073397E-1
7.630844000E0,-2.035766602E-1,-7.260950775E0,-3.245101776E0,7.634609000E0,-1.481212139E0,-1.015404940E0,4.046255648E-1
7.640888000E0,7.616162109E-1,-6.791227570E0,-2.641856232E0,7.644653000E0,-1.773241162E0,-1.350838661E0,2.663457990E-1
7.650931000E0,1.884730682E0,-6.627019043E0,-2.692750397E0,7.654696000E0,-2.032723665E0,-1.617155552E0,1.065337807E-1
7.660975000E0,2.448308716E0,-6.570736084E0,-2.730771332E0,7.664740000E0,-2.189834833E0,-1.826073170E0,-6.622287631E-2
7.671019000E0,2.347119141E0,-6.462511139E0,-2.602338409E0,7.674784000E0,-2.278616905E0,-1.952440500E0,-1.672530919E-1
7.681062000E0,1.796414337E0,-5.869145050E0,-2.540816345E0,7.684827000E0,-2.301072121E0,-2.032296419E0,-1.750254035E-1
7.691106000E0,1.113235016E0,-4.975353699E0,-2.591710510E0,7.694871000E0,-2.196703672E0,-2.037767649E0,-1.687754989E-1
7.701149000E0,-1.372645569E-1,-4.465214539E0,-2.533780975E0,7.704914000E0,-1.919364214E0,-1.872337341E0,-1.603763551E-1
7.711193000E0,-1.496887207E0,-4.114793243E0,-2.113305359E0,7.714958000E0,-1.541763306E0,-1.616122127E0,-2.063973695E-1
7.721237000E0,-2.272274780E0,-3.769910431E0,-1.864971771E0,7.725002000E0,-1.167862177E0,-1.348100185E0,-3.121610880E-1
7.731280000E0,-2.790347443E0,-3.551364899E0,-1.857038269E0,7.735045000E0,-8.522815108E-1,-1.141767621E0,-4.487458467E-1
7.741324000E0,-3.215313721E0,-3.512595520E0,-2.010618896E0,7.745089000E0,-5.454117656E-1,-1.061834693E0,-5.658763647E-1
7.751368000E0,-3.399730225E0,-3.745960236E0,-2.220482483E0,7.755133000E0,-2.031734288E-1,-1.049856663E0,-6.130646467E-1
7.761412000E0,-3.508703613E0,-4.291425934E0,-2.535427551E0,7.765177000E0,1.266180724E-1,-1.039833784E0,-6.336969733E-1
7.771455000E0,-3.139122162E0,-4.712200928E0,-3.169359283E0,7.775220000E0,3.919011652E-1,-1.003434896E0,-6.586643457E-1
7.781499000E0,-2.573298798E0,-4.788392487E0,-3.959715729E0,7.785264000E0,5.761849880E-1,-8.828171492E-1,-6.936713457E-1
7.791542000E0,-2.055525513E0,-4.509821777E0,-4.580175476E0,7.795307000E0,7.035780549E-1,-6.816195846E-1,-7.073533535E-1
7.801586000E0,-1.668430481E0,-4.252955933E0,-5.126239929E0,7.805351000E0,7.349458933E-1,-3.795271218E-1,-6.839314103E-1
7.811630000E0,-1.232536926E0,-4.313579865E0,-5.879323883E0,7.815395000E0,6.655856967E-1,1.078108475E-1,-6.804075241E-1
7.821673000E0,-8.018824768E-1,-4.757556610E0,-6.571933594E0,7.825438000E0,5.231570601E-1,7.966184616E-1,-6.488859653E-1
7.831717000E0,-1.006057892E0,-6.148763580E0,-6.980733490E0,7.835482000E0,3.965157866E-1,1.239539146E0,-5.525639653E-1
7.841761000E0,-1.853595428E0,-8.504864044E0,-6.778803406E0,7.845526000E0,2.582278848E-1,1.055697083E0,-4.085263014E-1
7.851804000E0,-3.029250641E0,-1.181702637E1,-6.096971283E0,7.855569000E0,-1.933581382E-2,6.077262759E-1,-2.947669923E-1
7.861848000E0,-5.048401794E0,-1.527932648E1,-6.562203827E0,7.865613000E0,-2.261679471E-1,3.035721779E-1,-3.020777404E-1
7.871892000E0,-5.887257385E0,-1.757480301E1,-7.259004822E0,7.875657000E0,-1.738368273E-1,-6.842671335E-2,-3.007911742E-1
7.881935000E0,-5.516328735E0,-1.699535797E1,-7.255262604E0,7.885700000E0,-3.381426632E-1,-2.644347847E-1,-1.178658530E-1
7.891979000E0,-5.337750092E0,-1.401640274E1,-9.594448242E0,7.895744000E0,-8.173143268E-1,-1.168967336E-1,5.795231462E-2
7.902023000E0,-4.972060547E0,-1.137469620E1,-1.200054474E1,7.905788000E0,-1.162464380E0,3.556733951E-2,2.117449045E-1
7.912066000E0,-4.057911530E0,-9.963580627E0,-1.006821304E1,7.915831000E0,-1.120805264E0,-1.381131113E-1,3.018327355E-1
7.922110000E0,-2.997217255E0,-9.811047821E0,-5.427713013E0,7.925875000E0,-9.466438890E-1,-1.244556159E-1,2.210406810E-1
7.932154000E0,-1.636546783E0,-1.146780258E1,-3.733835449E0,7.935919000E0,-8.980566859E-1,2.165056914E-1,1.696541905E-1
7.942197000E0,-1.684297485E0,-1.407657761E1,-4.947361908E0,7.945962000E0,-8.091900945E-1,6.150150895E-1,1.725313663E-1
7.952241000E0,-3.267555084E0,-1.509625717E1,-3.670666809E0,7.956006000E0,-5.182722807E-1,5.375421643E-1,1.604480743E-1
7.962285000E0,-5.562133484E0,-1.398781219E1,-2.229014740E0,7.966050000E0,-2.248211354E-1,2.304579020E-1,1.360710561E-1
7.972328000E0,-6.966662750E0,-1.221385117E1,-2.101929016E0,7.976093000E0,6.877532601E-2,-4.171903059E-2,1.566855162E-1
7.982372000E0,-7.704029388E0,-1.078297668E1,-2.009271698E0,7.986137000E0,3.019764721E-1,-4.179006815E-2,2.352318764E-1
7.992416000E0,-7.697143707E0,-9.118138733E0,-2.043700104E0,7.996181000E0,3.972390592E-1,1.531582698E-2,3.080664277E-1
8.002459000E0,-6.880591736E0,-7.727380829E0,-2.688409424E0,8.006224000E0,4.103345573E-1,3.065023385E-2,3.615573943E-1
8.012503000E0,-5.813161469E0,-7.030430145E0,-2.300416260E0,8.016268000E0,4.740871489E-1,-5.500448495E-2,4.453862607E-1
8.022547000E0,-5.112169189E0,-6.471193085E0,-1.214424591E0,8.026312000E0,6.669172049E-1,-2.069647759E-1,5.152163506E-1
8.032590000E0,-4.073778534E0,-6.336922302E0,1.595681763E-1,8.036355000E0,9.503219724E-1,-2.664116025E-1,5.168299675E-1
8.042634000E0,-2.481240234E0,-6.512507172E0,1.463356934E0,8.046399000E0,1.228016853E0,-2.175287604E-1,4.414731264E-1
8.052678000E0,-1.197060699E0,-6.978488159E0,1.982178040E0,8.056443000E0,1.453778267E0,-1.389609724E-1,3.762413859E-1
8.062721000E0,-6.807843018E-1,-7.786507874E0,1.836830292E0,8.066486000E0,1.603262544E0,-1.735940948E-2,3.429991901E-1
8.072765000E0,-6.893165588E-1,-8.209677887E0,1.142424316E0,8.076530000E0,1.672330141E0,1.078238115E-1,3.564894199E-1
8.082809000E0,-1.178050232E0,-8.312364349E0,2.484832764E-1,8.086574000E0,1.699507356E0,2.378778756E-1,4.448567033E-1
8.092852000E0,-2.238744507E0,-8.565487976E0,-5.566923523E-1,8.096617000E0,1.715572596E0,3.354172111E-1,5.508766174E-1
8.102896000E0,-3.421734467E0,-8.762927399E0,-1.219663696E0,8.106661000E0,1.712416649E0,3.837850094E-1,6.619358659E-1
8.112940000E0,-4.643044739E0,-8.875044250E0,-1.777403870E0,8.116705000E0,1.683930874E0,3.509801924E-1,7.557324171E-1
8.122983000E0,-5.256169739E0,-8.930279388E0,-2.110461273E0,8.126748000E0,1.656065941E0,3.120997548E-1,7.829427719E-1
8.133027000E0,-5.159470825E0,-8.891959076E0,-2.178419952E0,8.136792000E0,1.672856092E0,3.518221378E-1,7.426840067E-1
8.143071000E0,-4.701273651E0,-8.764573975E0,-2.002386017E0,8.146836000E0,1.689798355E0,4.351521432E-1,6.217323542E-1
8.153114000E0,-4.040547638E0,-8.512947235E0,-1.677262115E0,8.156879000E0,1.654180765E0,4.442148805E-1,4.835214913E-1
8.163158000E0,-3.531905365E0,-8.121511230E0,-1.515448608E0,8.166923000E0,1.625713825E0,4.412021339E-1,3.778290749E-1
8.173202000E0,-3.351380768E0,-7.730224915E0,-1.560804291E0,8.176967000E0,1.542111397E0,4.317183495E-1,2.687087059E-1
8.183245000E0,-2.989732819E0,-7.176226959E0,-1.861678619E0,8.187010000E0,1.438086510E0,4.604292214E-1,2.390443534E-1
8.193289000E0,-3.022664337E0,-6.732399902E0,-2.044747925E0,8.197054000E0,1.344735503E0,4.428821802E-1,2.810440063E-1
8.203333000E0,-2.866539001E0,-6.562203827E0,-2.080673218E0,8.207098000E0,1.286367893E0,4.712220728E-1,3.317642510E-1
8.213376000E0,-2.663860474E0,-6.412964172E0,-1.698966980E0,8.217141000E0,1.239760756E0,4.470280409E-1,3.511318266E-1
8.223420000E0,-2.236948242E0,-6.525530090E0,-1.468446350E0,8.227185000E0,1.197089672E0,3.557396829E-1,3.616590500E-1
8.233464000E0,-1.927092590E0,-6.946754150E0,-1.262474670E0,8.237229000E0,1.165953040E0,2.707661986E-1,3.851372004E-1
8.243507000E0,-1.833088074E0,-7.447911987E0,-1.138981476E0,8.247272000E0,1.175698996E0,1.920101047E-1,4.075113833E-1
8.253551000E0,-1.682800598E0,-8.015681305E0,-1.244961090E0,8.257316000E0,1.191132545E0,1.301225126E-1,4.287421107E-1
8.263595000E0,-1.433868256E0,-8.541088715E0,-1.546733551E0,8.267360000E0,1.163486958E0,6.178096309E-2,4.560933411E-1
8.273638000E0,-1.471589813E0,-9.032816162E0,-2.036515045E0,8.277403000E0,1.078183055E0,1.782122627E-2,4.975523651E-1
8.283682000E0,-1.688189392E0,-9.183403015E0,-2.455942841E0,8.287447000E0,9.400740862E-1,1.799622551E-2,5.444529057E-1
8.293725000E0,-1.784439240E0,-9.109456787E0,-2.810555420E0,8.297490000E0,7.875694633E-1,4.429839924E-2,5.828418732E-1
8.303769000E0,-1.681603088E0,-8.940308533E0,-3.000360718E0,8.307534000E0,6.527066231E-1,1.381914020E-1,6.330885887E-1
8.313813000E0,-1.706152039E0,-8.765322418E0,-2.981499939E0,8.317578000E0,5.423713326E-1,2.114869207E-1,7.133330703E-1
8.323856000E0,-1.951192474E0,-8.644373932E0,-3.026705933E0,8.327621000E0,4.775858223E-1,3.039652109E-1,7.901963592E-1
8.333900000E0,-2.178869019E0,-8.624016266E0,-2.846780090E0,8.337665000E0,4.130478203E-1,3.323292136E-1,8.402613401E-1
8.343944000E0,-2.210004272E0,-8.725355530E0,-2.737657013E0,8.347709000E0,3.330964744E-1,2.398774475E-1,8.606204987E-1
8.353987000E0,-2.186652832E0,-8.913963318E0,-2.692301331E0,8.357752000E0,2.895580530E-1,8.584660292E-2,8.516413569E-1
8.364031000E0,-2.213746490E0,-9.056616669E0,-2.574795685E0,8.367796000E0,3.138263822E-1,-1.229604054E-2,8.161218166E-1
8.374075000E0,-2.046843567E0,-9.194779358E0,-2.342029724E0,8.377840000E0,3.675151765E-1,-5.699160695E-2,7.303016782E-1
8.384118000E0,-1.532064056E0,-9.653874664E0,-1.900447998E0,8.387883000E0,3.841587603E-1,-1.886041611E-1,6.018995643E-1
8.394162000E0,-7.396119690E-1,-1.039243881E1,-1.742975464E0,8.397927000E0,3.593820333E-1,-3.426917195E-1,4.661473036E-1
8.404206000E0,-8.786727905E-2,-1.085602478E1,-1.789678345E0,8.407971000E0,3.260083199E-1,-5.220300555E-1,3.056301177E-1
8.414249000E0,5.685177612E-1,-1.101215012E1,-1.975142670E0,8.418014000E0,3.245750070E-1,-7.002208233E-1,1.693718880E-1
8.424293000E0,9.774673462E-1,-1.082024918E1,-2.431244202E0,8.428058000E0,3.497565985E-1,-7.736652493E-1,5.426174030E-2
8.434337000E0,6.107299805E-1,-1.055036041E1,-3.055146790E0,8.438102000E0,3.632473648E-1,-7.611423135E-1,-5.721871182E-2
8.444380000E0,-5.412744141E-1,-1.039992325E1,-3.031645660E0,8.448145000E0,2.909362018E-1,-8.501809239E-1,-1.880569160E-1
8.454423250E0,-1.980980530E0,-1.084659439E1,-2.445913696E0,8.458188250E0,1.707195193E-1,-9.833757281E-1,-3.053758144E-1
8.464467250E0,-3.631598053E0,-1.205607925E1,-2.054178314E0,8.468232250E0,1.097677276E-1,-9.368622303E-1,-3.707156777E-1
8.474510250E0,-4.888983307E0,-1.327544357E1,-1.652563477E0,8.478275250E0,1.187787950E-1,-6.947739720E-1,-4.220249355E-1
8.484554250E0,-5.445825348E0,-1.360820160E1,-1.272803192E0,8.488319250E0,8.880576491E-2,-4.580344856E-1,-5.051225424E-1
8.494598250E0,-5.646707611E0,-1.289283920E1,-1.297202454E0,8.498363250E0,-3.763100505E-2,-2.627243996E-1,-6.004168391E-1
8.504641250E0,-5.608087921E0,-1.167347488E1,-9.725276184E-1,8.508406250E0,-2.503912151E-1,-1.407033205E-1,-6.430683732E-1
8.514685250E0,-5.616021423E0,-1.136945709E1,-1.847158813E-1,8.518450250E0,-4.825560153E-1,-1.404654980E-1,-6.809188128E-1
8.524729250E0,-5.075345764E0,-1.123937759E1,6.529421997E-1,8.528494250E0,-7.165472507E-1,-1.322816312E-1,-7.392713428E-1
8.534772250E0,-4.643942871E0,-1.110151428E1,1.278042297E0,8.538537250E0,-9.705635309E-1,-8.718632907E-2,-7.878873348E-1
8.544816250E0,-4.594246216E0,-1.125000549E1,1.397044830E0,8.548581250E0,-1.211131573E0,6.269378215E-2,-9.218702316E-1
8.554860250E0,-4.712350616E0,-1.084270248E1,1.441801758E0,8.558625250E0,-1.429314017E0,2.664575875E-1,-1.058848381E0
8.564903250E0,-5.113067322E0,-1.002330643E1,1.087039490E0,8.568668250E0,-1.681346297E0,4.723187685E-1,-1.158118844E0
8.574947250E0,-5.548511810E0,-9.458081818E0,2.336640930E-1,8.578712250E0,-1.924472451E0,6.335175633E-1,-1.218896985E0
8.584991250E0,-6.091283112E0,-9.347611542E0,-5.496569824E-1,8.588756250E0,-2.091887474E0,7.200561166E-1,-1.214259267E0
8.595034250E0,-6.750961304E0,-9.780960388E0,-1.134041748E0,8.598799250E0,-2.144601822E0,7.751519084E-1,-1.122396469E0
8.605078250E0,-7.633825378E0,-1.028915359E1,-1.087937622E0,8.608843250E0,-2.071689844E0,8.650030494E-1,-1.003545880E0
8.615122250E0,-8.931925964E0,-1.081994980E1,-8.366102600E-1,8.618887250E0,-1.844815373E0,1.032332063E0,-9.024264216E-1
8.625165250E0,-1.041399399E1,-1.138397690E1,-5.282514954E-1,8.628930250E0,-1.469448566E0,1.206047297E0,-7.610824704E-1
8.635209250E0,-1.114073273E1,-1.164338745E1,-5.034031677E-1,8.638974250E0,-1.038501501E0,1.343000650E0,-5.600960851E-1
8.645253250E0,-1.030187714E1,-1.152273834E1,-5.661227417E-1,8.649018250E0,-6.762119532E-1,1.326516271E0,-3.562298119E-1
8.655296250E0,-8.134234772E0,-1.086350922E1,-5.041516113E-1,8.659061250E0,-4.909099638E-1,1.044893622E0,-1.707441211E-1
8.665340250E0,-6.096971283E0,-9.944869537E0,-6.682104492E-1,8.669105250E0,-4.540988505E-1,9.419480562E-1,1.081774533E-1
8.675383250E0,-5.557493134E0,-9.355994110E0,-9.369017029E-1,8.679148250E0,-4.063952565E-1,8.287025094E-1,3.616083860E-1
8.685427250E0,-4.642895050E0,-8.951984253E0,-6.480024719E-1,8.689192250E0,-3.909977973E-1,6.481412649E-1,4.116187096E-1
8.695471250E0,-2.517764282E0,-8.710686035E0,-6.758445740E-1,8.699236250E0,-4.193026721E-1,4.753774703E-1,3.632405102E-1
8.705514250E0,-7.408094788E-1,-8.394693146E0,-1.184636536E0,8.709279250E0,-4.328673184E-1,3.089908063E-1,3.695299625E-1
8.715558250E0,-8.113128662E-2,-8.189320221E0,-1.763183441E0,8.719323250E0,-6.198481321E-1,7.251539826E-2,4.065228403E-1
8.725602250E0,4.430786133E-2,-7.853418732E0,-3.479364624E0,8.729367250E0,-9.035665989E-1,-2.937321067E-1,4.731012881E-1
8.735645250E0,-1.511856079E-1,-7.411238251E0,-4.047882385E0,8.739410250E0,-1.184956551E0,-5.828874707E-1,4.861499965E-1
8.745689250E0,4.655319214E-2,-7.202721863E0,-3.561543732E0,8.749454250E0,-1.407990217E0,-7.772003412E-1,4.279754758E-1
8.755733250E0,4.977149963E-1,-7.187603302E0,-3.158881073E0,8.759498250E0,-1.577065706E0,-9.475057721E-1,2.773915529E-1
8.765776250E0,1.102756805E0,-7.450157318E0,-3.143762512E0,8.769541250E0,-1.737879515E0,-1.111041427E0,8.293560147E-2
8.775820250E0,1.490899658E0,-7.733368378E0,-3.401227112E0,8.779585250E0,-1.876759052E0,-1.319814563E0,-1.344827414E-1
8.785864250E0,1.512005768E0,-7.762707367E0,-3.697311401E0,8.789629250E0,-1.967946291E0,-1.440150738E0,-2.460071295E-1
8.795907250E0,4.495152283E-1,-7.459887085E0,-3.597469025E0,8.799672250E0,-1.975038528E0,-1.495660067E0,-2.932707667E-1
8.805951250E0,-4.707710266E-1,-7.001540222E0,-3.177592163E0,8.809716250E0,-1.907435894E0,-1.577284217E0,-3.303264081E-1
8.815995250E0,-9.336085510E-1,-6.406527557E0,-2.622396698E0,8.819760250E0,-1.806730628E0,-1.679295301E0,-3.715952933E-1
8.826038250E0,-1.179846497E0,-5.831423492E0,-2.002835083E0,8.829803250E0,-1.633066177E0,-1.633555651E0,-4.097033143E-1
8.836082250E0,-1.664837952E0,-5.212161255E0,-1.168919220E0,8.839847250E0,-1.399339914E0,-1.468189597E0,-4.362915158E-1
8.846126250E0,-2.324665833E0,-4.552033997E0,-6.617738342E-1,8.849891250E0,-1.107270241E0,-1.305874348E0,-4.884904623E-1
8.856169250E0,-2.678529968E0,-3.788022766E0,-6.420149231E-1,8.859934250E0,-7.053002119E-1,-1.205894470E0,-5.885454416E-1
8.866213250E0,-2.812501373E0,-3.000360718E0,-9.536668396E-1,8.869978250E0,-2.339225113E-1,-1.132908463E0,-6.967126727E-1
8.876257250E0,-3.050207062E0,-2.440524902E0,-1.498384094E0,8.880022250E0,2.430512309E-1,-1.021283984E0,-7.650129199E-1
8.886300250E0,-3.283422089E0,-2.293081512E0,-2.176473999E0,8.890065250E0,6.066233516E-1,-7.612071037E-1,-7.614661455E-1
8.896344250E0,-3.484603729E0,-2.612517242E0,-2.981649628E0,8.900109250E0,8.144279718E-1,-4.696171284E-1,-7.421135306E-1
8.906388250E0,-3.386407928E0,-3.027154999E0,-3.953129425E0,8.910153250E0,8.486354351E-1,-1.301304251E-1,-7.333564758E-1
8.916431250E0,-3.228935394E0,-3.413651276E0,-4.930447083E0,8.920196250E0,7.739859819E-1,2.212009728E-1,-7.161599398E-1
8.926475250E0,-3.227887573E0,-4.082759857E0,-5.494923248E0,8.930240250E0,6.923503280E-1,5.879056454E-1,-6.854891777E-1
8.936519250E0,-3.369044037E0,-5.382507019E0,-5.854325867E0,8.940284250E0,5.553230047E-1,8.849628568E-1,-5.958629251E-1
8.946562250E0,-3.781286774E0,-7.257208557E0,-6.618187408E0,8.950327250E0,3.863962591E-1,1.130934000E0,-4.613442421E-1
8.956606250E0,-4.161645813E0,-9.294172668E0,-6.565496979E0,8.960371250E0,2.151571661E-1,9.924817681E-1,-3.189029992E-1
8.966650250E0,-4.557871857E0,-1.204350540E1,-6.110293579E0,8.970415250E0,4.252439737E-2,6.146500111E-1,-2.392978519E-1
8.976693250E0,-4.684658203E0,-1.537243286E1,-5.788313141E0,8.980458250E0,-7.493495010E-3,2.625127435E-1,-2.684597373E-1
8.986737250E0,-3.882476349E0,-1.767389694E1,-5.081183624E0,8.990502250E0,1.839340292E-2,-1.429384574E-2,-2.406783700E-1
8.996780250E0,-3.967649231E0,-1.737901016E1,-5.899831238E0,9.000545250E0,-1.418982595E-1,-2.557498813E-1,-1.490802765E-1
9.006824250E0,-4.059707794E0,-1.458222610E1,-8.886869659E0,9.010589250E0,-5.578199625E-1,-2.155020833E-1,-2.463464998E-2
9.016868250E0,-3.137924652E0,-1.164997375E1,-1.146510818E1,9.020633250E0,-1.091983676E0,1.102504507E-1,1.002090126E-1
9.026911250E0,-1.883383484E0,-9.880653076E0,-1.177092224E1,9.030676250E0,-1.451465726E0,3.761409223E-1,2.055924833E-1
9.036955250E0,-1.793719940E0,-9.548344116E0,-9.293873291E0,9.040720250E0,-1.456543922E0,2.611594796E-1,1.568616927E-1
9.046999250E0,-1.398392029E0,-1.050021469E1,-5.697152710E0,9.050764250E0,-1.143748879E0,2.914457321E-1,5.648378283E-3
9.057042250E0,-8.888516235E-1,-1.277922546E1,-2.878214722E0,9.060807250E0,-7.882413864E-1,4.929825664E-1,-8.050487936E-2
9.067086250E0,-2.160008240E0,-1.521316406E1,-1.962568817E0,9.070851250E0,-4.745418131E-1,5.987508893E-1,-9.253836423E-2
9.077130250E0,-4.445904694E0,-1.646635803E1,-1.610500946E0,9.080895250E0,-6.954772025E-2,2.836400568E-1,-1.260923445E-1
9.087173250E0,-5.785768433E0,-1.513457748E1,-1.123713226E0,9.090938250E0,2.869694233E-1,-7.152134925E-2,-1.576287150E-1
9.097217250E0,-6.228996735E0,-1.108474915E1,-1.014290771E0,9.100982250E0,4.533472061E-1,-2.795637548E-1,-6.941017509E-2
9.107261250E0,-7.395520935E0,-7.582332458E0,-2.057471466E0,9.111026250E0,5.698509812E-1,-2.809300721E-1,6.758781523E-2
9.117304250E0,-7.607180786E0,-6.207441559E0,-3.043171692E0,9.121069250E0,5.746183395E-1,-3.976219147E-2,1.489883959E-1
9.127348250E0,-7.090904388E0,-5.827232208E0,-3.657194824E0,9.131113250E0,4.763500094E-1,5.173896998E-2,2.358951420E-1
9.137392250E0,-6.503675537E0,-5.738616486E0,-3.888613586E0,9.141157250E0,4.879435599E-1,-1.403612085E-3,3.541360199E-1
9.147435250E0,-5.689069519E0,-5.461542664E0,-2.886746979E0,9.151200250E0,6.820958257E-1,-2.626521513E-2,5.019277930E-1
9.157479250E0,-4.833149414E0,-5.539979553E0,-1.048569489E0,9.161244250E0,1.000736952E0,2.757431380E-2,6.060417295E-1
9.167523250E0,-3.699107666E0,-5.855223999E0,1.099912720E0,9.171288250E0,1.299427390E0,8.909033239E-2,6.025397182E-1
9.177566250E0,-2.111060028E0,-6.532715149E0,2.359842682E0,9.181331250E0,1.457126498E0,2.125662118E-1,5.248246789E-1
9.187610250E0,-1.030008087E0,-7.541467438E0,1.914818115E0,9.191375250E0,1.512019634E0,3.462267518E-1,5.124395490E-1
9.197654250E0,-1.017434235E0,-8.712332611E0,6.890171814E-1,9.201419250E0,1.512428761E0,4.183509946E-1,6.110012531E-1
9.207697250E0,-1.731748810E0,-9.576335907E0,-6.138734436E-1,9.211462250E0,1.462343335E0,3.897211552E-1,7.683622837E-1
9.217741250E0,-2.741249542E0,-9.979747009E0,-1.725312195E0,9.221506250E0,1.431365967E0,2.586686015E-1,9.465661049E-1
9.227784250E0,-3.880231018E0,-9.905501404E0,-1.771865387E0,9.231549250E0,1.485805631E0,1.555890590E-1,1.091040015E0
9.237828250E0,-4.456233215E0,-9.590706024E0,-1.116378479E0,9.241593250E0,1.599524140E0,5.798047408E-2,1.132317424E0
9.247872250E0,-4.020040283E0,-9.482630768E0,-6.429130554E-1,9.251637250E0,1.713845253E0,4.328459129E-2,1.017002225E0
9.257915250E0,-3.217409363E0,-9.604327698E0,-6.406677246E-1,9.261680250E0,1.784288526E0,1.540899426E-1,7.517984509E-1
9.267959250E0,-2.594704285E0,-9.562714233E0,-1.046623535E0,9.271724250E0,1.771318436E0,2.671272457E-1,4.678868651E-1
9.278003250E0,-2.405946808E0,-9.253457336E0,-1.683998108E0,9.281768250E0,1.710818887E0,3.027784526E-1,2.260835916E-1
9.288046250E0,-2.290387115E0,-8.494685211E0,-2.326761475E0,9.291811250E0,1.616242290E0,3.183565736E-1,4.241677746E-2
9.298090250E0,-2.140399017E0,-7.447762299E0,-2.660567322E0,9.301855250E0,1.511841059E0,3.518729806E-1,-6.958672404E-2
9.308134250E0,-2.074086914E0,-6.373596039E0,-2.457589417E0,9.311899250E0,1.419883132E0,3.885854781E-1,-7.375833392E-2
9.318177250E0,-2.315085754E0,-5.653892670E0,-2.136956177E0,9.321942250E0,1.326267004E0,3.505504727E-1,-1.188192144E-2
9.328221250E0,-2.537822571E0,-5.342390442E0,-2.016307068E0,9.331986250E0,1.201441765E0,1.692585349E-1,7.563372701E-2
9.338265250E0,-2.483036499E0,-5.507646790E0,-1.914518738E0,9.342030250E0,1.077893257E0,-1.063807756E-1,1.786919385E-1
9.348308250E0,-2.281256104E0,-5.964796143E0,-1.579066315E0,9.352073250E0,9.695011377E-1,-3.863222599E-1,2.604156435E-1
9.358352250E0,-1.937121735E0,-6.615493011E0,-1.290466461E0,9.362117250E0,9.249429703E-1,-5.587641001E-1,2.862983942E-1
9.368396250E0,-1.661095734E0,-7.242089996E0,-1.087488556E0,9.372161250E0,9.640359879E-1,-5.708400011E-1,2.908428907E-1
9.378439250E0,-1.586999817E0,-7.610473938E0,-1.067280579E0,9.382204250E0,1.023579717E0,-4.790738523E-1,3.072604835E-1
9.388483250E0,-1.615740051E0,-7.884853363E0,-1.352138214E0,9.392248250E0,1.028540015E0,-3.983134925E-1,3.738921285E-1
9.398527250E0,-1.819316711E0,-8.163573761E0,-1.751807098E0,9.402292250E0,9.872559309E-1,-3.584670126E-1,4.527693689E-1
9.408570250E0,-2.042203217E0,-8.325536957E0,-2.102228394E0,9.412335250E0,8.904674053E-1,-2.594288886E-1,5.299242735E-1
9.418614250E0,-2.370171204E0,-8.444240112E0,-2.505789185E0,9.422379250E0,7.492351532E-1,-1.170634627E-1,6.128569841E-1
9.428657250E0,-2.803070984E0,-8.695717163E0,-2.994822235E0,9.432422250E0,6.173889637E-1,6.391473860E-2,7.165781260E-1
9.438701250E0,-3.217259674E0,-9.214538269E0,-3.043171692E0,9.442466250E0,5.076233745E-1,1.763105243E-1,7.986018658E-1
9.448745250E0,-3.092718658E0,-9.900861053E0,-2.672093353E0,9.452510250E0,3.696897328E-1,1.557735503E-1,8.059979081E-1
9.458788083E0,-2.553090820E0,-1.054542068E1,-2.150877228E0,9.462553083E0,2.405059189E-1,6.700214744E-2,7.415356040E-1
9.468832083E0,-1.984273682E0,-1.088880661E1,-1.970951385E0,9.472597083E0,1.723558158E-1,-3.638320137E-3,6.398202181E-1
9.478876083E0,-1.502276001E0,-1.089239914E1,-2.285896454E0,9.482641083E0,1.909185797E-1,-1.471360773E-2,5.394579172E-1
9.488919083E0,-1.261127472E0,-1.066427353E1,-2.550396423E0,9.492684083E0,2.756517529E-1,-1.477502752E-3,4.752212167E-1
9.498963083E0,-1.166973267E0,-1.025262955E1,-2.348316650E0,9.502728083E0,3.247026503E-1,-9.826476127E-2,4.067734480E-1
9.509007083E0,-6.703060913E-1,-1.009500732E1,-2.136058044E0,9.512772083E0,3.235132992E-1,-3.127598763E-1,3.371171057E-1
9.519050083E0,-2.424957275E-2,-1.018826340E1,-2.036065979E0,9.522815083E0,3.055481613E-1,-5.058765411E-1,2.585608065E-1
9.529094083E0,6.122268677E-1,-1.041698776E1,-1.814376984E0,9.532859083E0,3.173519373E-1,-6.679211259E-1,1.191290691E-1
9.539138083E0,1.215472412E0,-1.072115524E1,-1.632654877E0,9.542903083E0,3.196856678E-1,-8.173673153E-1,-6.240210682E-2
9.549181083E0,9.636959839E-1,-1.098011673E1,-1.453327789E0,9.552946083E0,2.415999025E-1,-1.002382994E0,-2.473392040E-1
9.559225083E0,-4.724176025E-1,-1.140628052E1,-1.319356384E0,9.562990083E0,1.498918235E-1,-1.133604884E0,-4.047418833E-1
9.569269083E0,-2.148033142E0,-1.220786362E1,-1.116977234E0,9.573034083E0,7.065974176E-2,-1.078407168E0,-5.636872053E-1
9.579312083E0,-3.819457397E0,-1.304597076E1,-6.809339905E-1,9.583077083E0,-1.245059446E-2,-9.522897005E-1,-6.701348424E-1
9.589356083E0,-5.667364655E0,-1.324041641E1,-1.155746613E0,9.593121083E0,-1.028168350E-1,-7.043793201E-1,-7.697552443E-1
9.599400083E0,-6.483168182E0,-1.281275574E1,-1.458417206E0,9.603165083E0,-2.495868355E-1,-4.440920651E-1,-8.616617322E-1
9.609443083E0,-6.464008026E0,-1.254092102E1,-1.112785950E0,9.613208083E0,-4.137122035E-1,-1.906004399E-1,-9.039950967E-1
9.619487083E0,-6.345903625E0,-1.233360214E1,-2.282752991E-1,9.623252083E0,-5.595988631E-1,-2.487644926E-2,-9.364910126E-1
9.629530083E0,-6.079757080E0,-1.200219131E1,3.378474426E-1,9.633295083E0,-6.629196405E-1,7.606710494E-2,-9.610252976E-1
9.639574083E0,-5.955365753E0,-1.137873779E1,8.255332947E-1,9.643339083E0,-8.204983473E-1,2.439437211E-1,-9.594390988E-1
9.649618083E0,-5.802982635E0,-1.069735474E1,9.110055542E-1,9.653383083E0,-9.921196103E-1,4.349717498E-1,-9.677285552E-1
9.659661083E0,-5.676196289E0,-1.013018417E1,1.189576263E0,9.663426083E0,-1.183262944E0,6.371759772E-1,-9.773729444E-1
9.669705083E0,-5.912255402E0,-9.548344116E0,1.387464752E0,9.673470083E0,-1.410992980E0,7.705277801E-1,-9.807726741E-1
9.679749083E0,-6.220614166E0,-9.170380096E0,8.144563293E-1,9.683514083E0,-1.656203508E0,7.111501694E-1,-9.285398722E-1
9.689792083E0,-6.631809082E0,-9.019194489E0,-4.071533203E-2,9.693557083E0,-1.876134515E0,5.830792189E-1,-8.113301992E-1
9.699836083E0,-7.219337311E0,-9.259444885E0,-6.607260132E-1,9.703601083E0,-2.037898540E0,5.828959942E-1,-7.142228484E-1
9.709880083E0,-7.955955505E0,-1.002061203E1,-1.175206146E0,9.713645083E0,-2.059656858E0,6.671285629E-1,-6.927537918E-1
9.719923083E0,-8.975784760E0,-1.088207062E1,-1.385967865E0,9.723688083E0,-1.869451523E0,7.490231395E-1,-6.726439595E-1
9.729967083E0,-9.917326813E0,-1.136691238E1,-1.213825836E0,9.733732083E0,-1.554343939E0,9.525184631E-1,-5.656108260E-1
9.740011083E0,-1.028945297E1,-1.157168655E1,-1.087189178E0,9.743776083E0,-1.239582181E0,1.341606021E0,-4.096119106E-1
9.750054083E0,-9.630523224E0,-1.147304169E1,-1.150657196E0,9.753819083E0,-9.972117543E-1,1.671190977E0,-2.762346268E-1
9.760098083E0,-8.360264740E0,-1.119417160E1,-1.322649536E0,9.763863083E0,-8.324859142E-1,1.691447496E0,-1.530511528E-1
9.770142083E0,-6.909930725E0,-1.073342972E1,-1.404678955E0,9.773907083E0,-6.804212332E-1,1.625857353E0,9.914840572E-3
9.780185083E0,-6.214925995E0,-1.010653336E1,-1.142574005E0,9.783950083E0,-5.648703575E-1,1.588886738E0,1.877825856E-1
9.790229083E0,-5.515280914E0,-9.304351501E0,-1.063388672E0,9.793994083E0,-4.804747999E-1,1.380251646E0,2.497719228E-1
9.800272083E0,-4.070784760E0,-8.785829773E0,-9.029223633E-1,9.804037083E0,-3.911505044E-1,1.184903979E0,1.974437386E-1
9.810316083E0,-2.720293121E0,-8.896599426E0,-7.435038757E-1,9.814081083E0,-3.903772831E-1,9.498930573E-1,1.570367813E-1
9.820360083E0,-2.044747925E0,-8.538993073E0,-1.561552734E0,9.824125083E0,-5.376600027E-1,6.144857407E-1,1.488060206E-1
9.830403083E0,-1.696871338E0,-8.051606598E0,-2.866988068E0,9.834168083E0,-7.271139622E-1,2.729051411E-1,1.889864057E-1
9.840447083E0,-1.453776855E0,-7.500752106E0,-3.212319946E0,9.844212083E0,-8.820614219E-1,-9.510935843E-2,2.761972249E-1
9.850491083E0,-1.052910461E0,-7.035369873E0,-2.910397797E0,9.854256083E0,-1.033518910E0,-4.778082669E-1,3.113323152E-1
9.860534083E0,-4.864883423E-2,-6.764882355E0,-2.705623627E0,9.864299083E0,-1.175729275E0,-8.456222415E-1,2.201664299E-1
9.870578083E0,1.160386963E0,-6.618636475E0,-2.568209381E0,9.874343083E0,-1.307654977E0,-1.202381492E0,5.097701773E-2
9.880622083E0,2.236499176E0,-6.421795807E0,-2.533331909E0,9.884387083E0,-1.421308637E0,-1.504389644E0,-1.565692425E-1
9.890665083E0,2.555485840E0,-6.139931946E0,-2.674488373E0,9.894430083E0,-1.526381373E0,-1.582690001E0,-2.432544529E-1
9.900709083E0,2.347119141E0,-5.565276947E0,-2.724783783E0,9.904474083E0,-1.569587946E0,-1.556307316E0,-2.642803788E-1
9.910753083E0,1.895657959E0,-4.880750427E0,-2.756966858E0,9.914518083E0,-1.503770471E0,-1.442624688E0,-2.753507197E-1
9.920796083E0,1.162183228E0,-4.221820679E0,-2.643203430E0,9.924561083E0,-1.306423068E0,-1.258692741E0,-3.128080666E-1
9.930840083E0,3.697311401E-1,-3.561094666E0,-2.443069611E0,9.934605083E0,-1.026825547E0,-1.037268639E0,-3.850764036E-1
9.940884083E0,-4.207749939E-1,-2.975213013E0,-2.295925598E0,9.944649083E0,-7.571216226E-1,-8.606587648E-1,-4.568571150E-1
9.950927083E0,-1.132993927E0,-2.696492615E0,-2.323468323E0,9.954692083E0,-5.124605894E-1,-7.454477549E-1,-5.229789615E-1
9.960971083E0,-1.721719666E0,-2.657124481E0,-2.500999146E0,9.964736083E0,-2.682794034E-1,-6.970783472E-1,-5.623759031E-1
9.971014083E0,-2.076332245E0,-2.882406006E0,-2.760409698E0,9.974779083E0,-2.868361212E-2,-7.203623056E-1,-5.832848549E-1
9.981058083E0,-2.189646606E0,-3.272345123E0,-3.139271851E0,9.984823083E0,2.029951513E-1,-7.985559106E-1,-6.011735797E-1
9.991102083E0,-1.866318970E0,-3.694766693E0,-3.618425446E0,9.994867083E0,4.155265093E-1,-7.207921743E-1,-5.861282945E-1
1.000114508E1,-1.769470367E0,-4.081712036E0,-3.703598328E0,1.000491008E1,5.181338191E-1,-4.296647012E-1,-5.168413520E-1
1.001118908E1,-1.921554108E0,-4.507875824E0,-3.969146118E0,1.001495408E1,5.562951565E-1,-5.791823380E-3,-3.888267279E-1
1.002123308E1,-2.340383148E0,-5.152285767E0,-4.255350952E0,1.002499808E1,5.459804535E-1,4.120818675E-1,-2.505666018E-1
1.003127608E1,-2.707270203E0,-6.292315063E0,-5.102888489E0,1.003504108E1,3.698461652E-1,6.066872478E-1,-1.831246763E-1
1.004132008E1,-2.879412231E0,-8.359216919E0,-6.674320679E0,1.004508508E1,1.313595474E-1,5.732225180E-1,-1.350740641E-1
1.005136408E1,-3.563639374E0,-1.132844238E1,-7.351662140E0,1.005512908E1,-1.210835874E-1,5.116010904E-1,-1.987486482E-1
1.006140708E1,-3.989204407E0,-1.418540131E1,-7.121141510E0,1.006517208E1,-3.092574775E-1,3.866631687E-1,-3.942118883E-1
1.007145108E1,-4.337230682E0,-1.641591293E1,-7.104376373E0,1.007521608E1,-2.660497725E-1,-1.366890781E-2,-6.394304633E-1
1.008149508E1,-3.909120941E0,-1.664314041E1,-6.129753113E0,1.008526008E1,-1.995208263E-1,-2.149029523E-1,-7.095136642E-1
1.009153808E1,-4.389472046E0,-1.521166718E1,-6.461163940E0,1.009530308E1,-4.198988080E-1,-2.996208370E-1,-5.786882639E-1
1.010158208E1,-4.892126770E0,-1.313862808E1,-9.544152832E0,1.010534708E1,-7.993036509E-1,-1.935031861E-1,-4.104001820E-1
1.011162608E1,-3.705394592E0,-1.010174332E1,-1.168994064E1,1.011539108E1,-1.224868774E0,8.899041265E-2,-2.386396229E-1
1.012166908E1,-2.541714478E0,-7.376211090E0,-1.196057785E1,1.012543408E1,-1.533769846E0,3.423249424E-1,-5.417390540E-2
1.013171308E1,-2.276615753E0,-6.769073639E0,-9.274713135E0,1.013547808E1,-1.531471729E0,2.187578678E-1,2.367062122E-2
