"time_acc","acc_x","acc_y","acc_z","time_gyro","gyro_x","gyro_y","gyro_z"
7.053750160E-4,4.790039063E-2,-9.595496063E0,2.074685669E-1,6.987375004E-3,1.017796040E0,2.337356955E-1,9.886117578E-1
1.075737501E-2,1.464255066E0,-9.763297119E0,8.452922058E-1,1.703937500E-2,9.855920672E-1,5.521014333E-1,8.837897182E-1
2.080937501E-2,3.107088776E0,-1.008827133E1,1.178349609E0,2.709137500E-2,9.221622348E-1,7.681389451E-1,7.334428430E-1
3.086137501E-2,4.159550171E0,-1.036354889E1,9.506730652E-1,3.714337503E-2,8.919661641E-1,8.872221112E-1,5.867714286E-1
4.091337501E-2,4.441863098E0,-1.052087173E1,4.439767456E-1,4.719537502E-2,8.675177693E-1,9.445114732E-1,4.026835859E-1
5.096537501E-2,4.196074219E0,-1.053194870E1,-2.026785278E-1,5.724737502E-2,7.376085520E-1,9.099782705E-1,1.943900883E-1
6.101737500E-2,3.871698761E0,-1.039184006E1,-1.383273468E0,6.729941667E-2,5.096414089E-1,8.635159731E-1,5.362284184E-2
7.106941668E-2,2.985242157E0,-1.026325745E1,-2.262395325E0,7.735141669E-2,2.704927921E-1,8.243084550E-1,-3.443834186E-2
8.112141668E-2,1.850002899E0,-1.041489212E1,-2.308200073E0,8.740341669E-2,9.434174001E-2,7.668270469E-1,-5.115899444E-2
9.117341667E-2,6.182144165E-1,-1.067774551E1,-1.588496704E0,9.745541669E-2,-3.024140745E-2,6.930789948E-1,-1.111146994E-2
1.012254167E-1,-4.637356567E-1,-1.075693085E1,-7.637118530E-1,1.075074167E-1,-1.174191907E-1,6.134150624E-1,3.797831386E-2
1.112774167E-1,-1.051712952E0,-1.076695999E1,-2.070195007E-1,1.175594167E-1,-1.568022519E-1,5.184931755E-1,9.135896713E-2
1.213294167E-1,-1.243763580E0,-1.099373840E1,7.214996338E-2,1.276114167E-1,-1.942388415E-1,3.970236778E-1,1.332432926E-1
1.313814167E-1,-9.973759460E-1,-1.151211044E1,-1.266366577E-1,1.376634167E-1,-2.631681263E-1,3.143045008E-1,1.683775634E-1
1.414334167E-1,-3.317102051E-1,-1.209963867E1,-7.123686218E-1,1.477154167E-1,-3.522713780E-1,3.301908076E-1,1.959388852E-1
1.514854167E-1,6.926097107E-1,-1.230710724E1,-1.313668213E0,1.577674167E-1,-4.642142951E-1,4.435343444E-1,1.911714673E-1
1.615384167E-1,1.950743408E0,-1.219963074E1,-1.767225037E0,1.678204167E-1,-6.135377288E-1,5.741109848E-1,1.592228562E-1
1.715904167E-1,3.069816284E0,-1.206206680E1,-2.127825165E0,1.778724167E-1,-7.793287635E-1,6.713123918E-1,8.225370944E-2
1.816424167E-1,3.759432220E0,-1.229438370E1,-2.338586884E0,1.879244167E-1,-9.631609321E-1,6.560128331E-1,-8.785703033E-2
1.916944167E-1,3.995341644E0,-1.304462357E1,-2.173180847E0,1.979764167E-1,-1.194236398E0,3.940225542E-1,-3.416289389E-1
2.017464167E-1,3.986360321E0,-1.377585297E1,-1.696122894E0,2.080284167E-1,-1.464662552E0,-1.409887895E-2,-6.140887141E-1
2.117984167E-1,3.755690002E0,-1.404619080E1,-1.187480621E0,2.180804167E-1,-1.760183334E0,-5.991324186E-1,-8.700097799E-1
2.218504167E-1,4.012106781E0,-1.457848389E1,-8.761280823E-1,2.281324167E-1,-1.993190765E0,-1.339000821E0,-1.103582621E0
2.319024167E-1,4.389172668E0,-1.464704132E1,-5.553451538E-1,2.381844167E-1,-2.180245876E0,-1.901787996E0,-1.357763410E0
2.419544167E-1,4.111799469E0,-1.397448990E1,-4.031117249E-1,2.482364167E-1,-2.508870125E0,-2.021972418E0,-1.526258111E0
2.520064167E-1,2.778072968E0,-1.349084564E1,-1.546284485E0,2.582884167E-1,-2.959217072E0,-1.965664506E0,-1.549692035E0
2.620584167E-1,7.214996338E-1,-1.300720139E1,-3.034489746E0,2.683404167E-1,-3.422130585E0,-1.748186469E0,-1.450343132E0
2.721104167E-1,-1.589245148E0,-1.293280609E1,-3.817810822E0,2.783924167E-1,-3.594382524E0,-1.641320109E0,-1.304031372E0
2.821624167E-1,-4.054019623E0,-1.333726501E1,-2.488275604E0,2.884444167E-1,-3.243625879E0,-1.870557547E0,-1.112803459E0
2.922144167E-1,-5.969735870E0,-1.348440903E1,2.166594543E0,2.984964167E-1,-2.752635717E0,-1.998397708E0,-9.667732716E-1
3.022664167E-1,-7.088359680E0,-1.383183655E1,6.127058716E0,3.085484167E-1,-2.414829254E0,-1.500909090E0,-8.653624654E-1
3.123184167E-1,-7.361541595E0,-1.458836334E1,7.324568481E0,3.186004167E-1,-2.286819696E0,-5.800852180E-1,-7.414389253E-1
3.223704167E-1,-7.583080902E0,-1.459854218E1,5.921236725E0,3.286524167E-1,-2.255453348E0,2.230442464E-1,-5.536208153E-1
3.324224167E-1,-8.155340881E0,-1.442684921E1,2.329904938E0,3.387044167E-1,-2.166958809E0,7.442265153E-1,-4.618646502E-1
3.424744167E-1,-8.077053680E0,-1.382599869E1,-1.377136230E0,3.487564167E-1,-1.994492292E0,1.199873686E0,-4.885854721E-1
3.525264167E-1,-6.813980255E0,-1.235470825E1,-3.609144745E0,3.588084167E-1,-1.882370472E0,1.437521219E0,-5.383821130E-1
3.625784167E-1,-5.053341522E0,-1.069870193E1,-4.844525757E0,3.688604167E-1,-1.941473484E0,1.094463706E0,-6.011493802E-1
3.726304167E-1,-2.681374054E0,-9.985884247E0,-5.373226318E0,3.789124167E-1,-2.208959341E0,4.034101367E-1,-5.520007610E-1
3.826824167E-1,-1.528172150E0,-1.000863693E1,-5.106630707E0,3.889644167E-1,-2.356830359E0,-4.672062397E-1,-5.214228630E-1
3.927344167E-1,-8.855584717E-1,-9.687854004E0,-3.102298737E0,3.990164167E-1,-2.281917095E0,-7.579421997E-1,-6.262658238E-1
4.027864167E-1,2.647993469E-1,-8.766070862E0,-4.373904419E-1,4.090684167E-1,-2.069405317E0,-5.767460465E-1,-7.894941568E-1
4.128384167E-1,1.316961365E0,-8.082442474E0,7.786807251E-1,4.191204167E-1,-1.881793499E0,-4.225599468E-1,-8.909032941E-1
4.228904167E-1,1.857038269E0,-7.840545502E0,8.107141113E-1,4.291724167E-1,-1.782866120E0,-4.231069386E-1,-9.729619622E-1
4.329424167E-1,2.269580383E0,-7.849227448E0,1.293310547E-1,4.392244167E-1,-1.690746188E0,-4.751525819E-1,-1.043879747E0
4.429944167E-1,2.237996063E0,-7.862100677E0,-3.218307495E-2,4.492764167E-1,-1.542067289E0,-6.741269827E-1,-1.092658162E0
4.530464167E-1,1.835483093E0,-7.435787201E0,3.420387268E-1,4.593284167E-1,-1.354534745E0,-9.561411738E-1,-1.104122162E0
4.630984167E-1,1.211730194E0,-6.869963837E0,6.304888916E-1,4.693804167E-1,-1.157228589E0,-1.202692270E0,-1.118868947E0
4.731504167E-1,5.656736755E-1,-6.301446075E0,7.141648865E-1,4.794324167E-1,-1.020237088E0,-1.490006208E0,-1.146227598E0
4.832024167E-1,-1.713935852E-1,-5.863905945E0,6.767427063E-1,4.894844167E-1,-8.349385858E-1,-1.661694884E0,-1.124208808E0
4.932544167E-1,-7.444020081E-1,-5.731730804E0,7.420069885E-1,4.995364167E-1,-6.861747503E-1,-1.822938442E0,-1.107501745E0
5.033064167E-1,-9.825567627E-1,-5.492079163E0,7.613168335E-1,5.095884167E-1,-5.589281321E-1,-2.060323238E0,-1.071880579E0
5.133584167E-1,-1.181343384E0,-5.409151611E0,7.092251587E-1,5.196404167E-1,-4.837860465E-1,-2.337733269E0,-1.006229520E0
5.234104167E-1,-1.540895691E0,-5.390141144E0,6.529421997E-1,5.296924167E-1,-3.913852572E-1,-2.425685167E0,-9.416921735E-1
5.334624167E-1,-2.108066254E0,-5.119953003E0,6.023474121E-1,5.397444167E-1,-2.120043486E-1,-2.324884415E0,-8.775484562E-1
5.435144167E-1,-2.486928406E0,-4.616998901E0,2.245330811E-1,5.497964167E-1,-3.516725451E-2,-2.209765673E0,-7.667918205E-1
5.535664167E-1,-2.649490356E0,-4.187242584E0,-6.444099426E-1,5.598484167E-1,1.505377740E-1,-2.065979719E0,-6.136794090E-1
5.636184167E-1,-2.627935181E0,-3.988905029E0,-1.544338531E0,5.699004167E-1,3.558089137E-1,-1.849476814E0,-4.278411567E-1
5.736704167E-1,-2.457140350E0,-3.933370514E0,-2.284399567E0,5.799524167E-1,5.769367218E-1,-1.555984020E0,-2.491549999E-1
5.837224167E-1,-2.153122559E0,-3.965403900E0,-2.897674255E0,5.900044167E-1,8.063153028E-1,-1.160021067E0,-1.112767681E-1
5.937744167E-1,-1.820663910E0,-4.082011414E0,-3.264561310E0,6.000564167E-1,1.051665664E0,-6.958761215E-1,-3.172321618E-2
6.038264167E-1,-1.494192810E0,-4.200564880E0,-3.406915283E0,6.101084167E-1,1.299490571E0,-2.881397903E-1,-1.446886361E-2
6.138784167E-1,-1.015039215E0,-4.574187927E0,-3.571423187E0,6.201604167E-1,1.484294295E0,-2.524695173E-2,-2.939991467E-2
6.239304167E-1,-5.619314575E-1,-5.227878571E0,-4.117038574E0,6.302124167E-1,1.593357444E0,1.329698563E-1,-6.747166812E-2
6.339834167E-1,-2.154020691E-1,-6.119424591E0,-5.103337555E0,6.402644167E-1,1.581857085E0,1.757542044E-1,-9.261909127E-2
6.440354167E-1,2.035766602E-2,-7.148684235E0,-6.419700165E0,6.503174167E-1,1.451303244E0,2.002459615E-1,-5.247540027E-2
6.540874167E-1,-9.400451660E-2,-8.455317078E0,-8.024512939E0,6.603694167E-1,1.225435138E0,1.408490539E-1,7.375141233E-2
6.641394167E-1,-3.023712158E-1,-9.802216187E0,-9.479487305E0,6.704214167E-1,8.661141992E-1,2.380258776E-2,2.307444960E-1
6.741914167E-1,-4.525090027E-1,-1.108549759E1,-1.044767395E1,6.804734167E-1,4.069571793E-1,-7.102385163E-2,3.431078792E-1
6.842434167E-1,-2.089654541E-1,-1.228300735E1,-1.094329330E1,6.905254167E-1,1.976666506E-3,-1.418093443E-1,2.875804305E-1
6.942954167E-1,1.192420349E0,-1.365535355E1,-1.039393570E1,7.005774167E-1,-2.924619317E-1,-2.783001959E-1,6.433913112E-2
7.043474167E-1,3.247796173E0,-1.477292953E1,-9.473948822E0,7.106294167E-1,-4.513333440E-1,-4.412121475E-1,-2.025207877E-1
7.143994167E-1,4.484225006E0,-1.486902969E1,-8.797206116E0,7.206814167E-1,-4.861564636E-1,-5.880444646E-1,-4.260360301E-1
7.244514167E-1,4.335434418E0,-1.376612320E1,-8.186027069E0,7.307334167E-1,-5.085456371E-1,-7.478697896E-1,-5.490348935E-1
7.345034167E-1,3.216810608E0,-1.186866898E1,-8.258626099E0,7.407854167E-1,-5.275073051E-1,-8.936241865E-1,-6.214241982E-1
7.445554167E-1,2.362237701E0,-1.005339386E1,-8.480315094E0,7.508374167E-1,-4.658429027E-1,-9.990888238E-1,-6.646589637E-1
7.546074167E-1,1.818119202E0,-8.507558441E0,-7.944429474E0,7.608894167E-1,-2.770438790E-1,-1.048358440E0,-6.682299376E-1
7.646594167E-1,1.103355560E0,-7.049739990E0,-7.064708862E0,7.709414167E-1,2.330507617E-3,-1.062332273E0,-5.893076658E-1
7.747114167E-1,-1.315763855E-1,-5.840704193E0,-5.945935364E0,7.809934167E-1,3.048721254E-1,-9.809309840E-1,-4.607897103E-1
7.847634167E-1,-1.634750519E0,-5.242548065E0,-4.756508789E0,7.910454167E-1,6.568549871E-1,-7.442862391E-1,-3.092012703E-1
7.948154167E-1,-2.874173126E0,-5.779631195E0,-3.084336090E0,8.010974167E-1,1.116840005E0,-3.387959599E-1,-1.254152805E-1
8.048674167E-1,-3.729644165E0,-6.962621155E0,-5.623805237E-1,8.111494167E-1,1.595818043E0,2.632555664E-1,8.905147761E-2
8.149194167E-1,-5.216951294E0,-8.541837158E0,1.392254791E0,8.212014167E-1,1.801443696E0,1.069082737E0,3.963801861E-1
8.249714167E-1,-7.525001678E0,-1.200817886E1,1.222956848E0,8.312534167E-1,1.283172369E0,1.826597691E0,7.046959400E-1
8.350234167E-1,-8.944799194E0,-1.779963547E1,-2.225571899E0,8.413054167E-1,-5.309967324E-2,2.183923483E0,7.379290462E-1
8.450754167E-1,-8.186625824E0,-2.510219971E1,-9.455986176E0,8.513574167E-1,-1.033356786E0,1.311959863E0,1.860924661E-1
8.551274167E-1,-4.636308746E0,-2.931848190E1,-1.104253693E1,8.614094167E-1,-4.376525283E-1,6.837048531E-1,-3.227908611E-1
8.651794167E-1,7.619155884E-1,-2.061138840E1,8.578660583E-1,8.714614167E-1,9.599669576E-1,9.033304453E-1,-5.144711137E-1
8.752314167E-1,8.842112732E-1,-8.946146393E0,1.199635345E1,8.815134167E-1,1.798825860E0,1.234143496E0,-5.706222057E-1
8.852834167E-1,-1.102756805E0,-4.012855225E0,9.484726410E0,8.915654167E-1,2.110475779E0,1.899979353E0,-4.832742214E-1
8.953354167E-1,-3.148702240E0,-2.329156494E0,4.783901825E0,9.016174167E-1,1.976429105E0,2.612417459E0,-1.353357136E-1
9.053874167E-1,-4.772076416E0,-1.587748260E0,2.140548706E-1,9.116694167E-1,1.797248721E0,3.317665100E0,3.267871737E-1
9.154394167E-1,-5.344486084E0,-1.308578796E0,-1.994153137E0,9.217214167E-1,1.966135502E0,3.913978100E0,8.338404894E-1
9.254914167E-1,-5.124593353E0,-2.483934631E0,1.579365692E0,9.317734167E-1,2.206140280E0,4.166260242E0,1.287565589E0
9.355434167E-1,-4.573439484E0,-5.192851410E0,4.896318054E0,9.418254167E-1,2.281539679E0,3.995620489E0,1.593699813E0
9.455954167E-1,-3.420686646E0,-7.777526550E0,5.494474182E0,9.518774167E-1,2.148290157E0,3.551918507E0,1.718334436E0
9.556474167E-1,-1.946851501E0,-9.807754669E0,4.389472046E0,9.619294167E-1,1.911493659E0,2.815240145E0,1.704660296E0
9.656994167E-1,1.228944397E-1,-1.154534134E1,2.635868683E0,9.719814167E-1,1.646157861E0,1.958134413E0,1.544733763E0
9.757514167E-1,1.922003174E0,-1.302576279E1,1.158441010E0,9.820334167E-1,1.388242841E0,1.233746648E0,1.357787371E0
9.858034167E-1,2.918331299E0,-1.367586090E1,1.197509766E-1,9.920854167E-1,1.361412525E0,5.310598612E-1,1.117076278E0
9.958554167E-1,3.970343628E0,-1.366702927E1,5.456153870E-1,1.002137417E0,1.402851343E0,1.874249727E-1,8.515498042E-1
1.005907417E0,4.635560303E0,-1.352751938E1,3.832031250E-1,1.012189417E0,1.436877966E0,3.331044018E-1,5.448337793E-1
1.015959417E0,5.060227203E0,-1.289283920E1,-2.152523804E-1,1.022241417E0,1.479662776E0,1.015971899E0,2.985726297E-1
1.026011417E0,4.598437500E0,-1.136960678E1,-3.805087280E-1,1.032293417E0,1.602576971E0,1.758111477E0,1.706852466E-1
1.036063417E0,2.920876007E0,-9.448352051E0,-5.688171387E-3,1.042345417E0,1.663499594E0,2.117308617E0,1.190991327E-1
1.046115417E0,1.515448608E0,-8.215366058E0,-1.142124939E-1,1.052397417E0,1.664513946E0,1.949264407E0,1.296500564E-1
1.056167417E0,4.541555786E-1,-7.301666107E0,-2.130070496E-1,1.062449417E0,1.615077376E0,1.646924376E0,1.997170597E-1
1.066219417E0,-5.182223511E-1,-6.787485352E0,-2.240840149E-1,1.072501500E0,1.479455471E0,1.388036370E0,2.784432769E-1
1.076271500E0,-8.975335693E-1,-6.673871613E0,-5.089416504E-1,1.082554500E0,1.297322392E0,1.219538212E0,2.942882776E-1
1.086324500E0,-5.539979553E-1,-7.235054626E0,-4.331991577E-1,1.092606500E0,1.130283833E0,1.143622756E0,3.173877597E-1
1.096376500E0,-2.526745605E-1,-7.881260834E0,2.110610962E-1,1.102658500E0,1.035088539E0,1.121992946E0,3.711538911E-1
1.106428500E0,-3.068618774E-2,-8.443791046E0,8.848100281E-1,1.112710500E0,1.016877055E0,1.172783256E0,4.383624792E-1
1.116480500E0,1.200503540E-1,-8.948242035E0,1.172212372E0,1.122762500E0,1.037174463E0,1.208431244E0,5.421298146E-1
1.126532500E0,7.529342651E-2,-9.160650330E0,8.402027893E-1,1.132814500E0,1.022422433E0,1.223282933E0,6.486359835E-1
1.136584500E0,-2.571652222E-1,-9.244326324E0,-2.547702026E-1,1.142866500E0,1.138861299E0,1.101516843E0,6.877288818E-1
1.146636500E0,-2.110610962E-1,-9.497749329E0,-2.465373230E-1,1.152918500E0,1.242859006E0,7.891340852E-1,6.946637630E-1
1.156688500E0,-1.339714050E-1,-9.641300812E0,-1.856140137E-1,1.162970500E0,1.260986209E0,4.414440393E-1,6.910136938E-1
1.166740500E0,-2.146536255E-1,-9.603579254E0,-2.962339783E-1,1.173022500E0,1.156568766E0,2.951613963E-1,7.230477929E-1
1.176792500E0,-3.375480652E-1,-9.430539093E0,-3.653901672E-1,1.183074500E0,1.053315759E0,3.651403487E-1,7.583791018E-1
1.186844500E0,-1.836680603E-1,-9.205407257E0,-1.936972046E-1,1.193126500E0,1.025932550E0,4.792647958E-1,7.659600377E-1
1.196896500E0,4.924758911E-1,-9.153315582E0,3.010240173E-1,1.203178500E0,1.059476852E0,6.074681878E-1,7.272763848E-1
1.206948500E0,1.270108795E0,-9.490863647E0,7.150630188E-1,1.213230500E0,1.134526014E0,7.346474528E-1,6.887457371E-1
1.217000500E0,1.871109009E0,-9.986782379E0,1.003213806E0,1.223282500E0,1.198612571E0,8.620476723E-1,5.995749831E-1
1.227052500E0,2.373015289E0,-1.044677582E1,1.184337158E0,1.233334500E0,1.226130962E0,9.557887912E-1,5.319591761E-1
1.237104500E0,2.438728638E0,-1.048225204E1,1.201251984E0,1.243386500E0,1.184021950E0,1.012240052E0,4.916436374E-1
1.247156500E0,2.180066528E0,-1.021820114E1,8.050259399E-1,1.253438500E0,1.075831771E0,1.012264609E0,4.521968961E-1
1.257208500E0,1.743574219E0,-9.823322296E0,-3.906875610E-2,1.263490500E0,8.841173649E-1,8.997045159E-1,4.021045864E-1
1.267260500E0,1.378932495E0,-9.735754395E0,-1.306782532E0,1.273542500E0,6.302235723E-1,6.784451008E-1,3.352981210E-1
1.277312500E0,1.174308014E0,-1.017209702E1,-2.519410858E0,1.283594500E0,3.718478680E-1,4.632183313E-1,2.548342645E-1
1.287364500E0,1.328936462E0,-1.082668579E1,-2.979553986E0,1.293646500E0,1.672891378E-1,3.465614915E-1,2.191409916E-1
1.297416500E0,1.381327515E0,-1.123788071E1,-2.386786652E0,1.303698500E0,6.471841037E-2,4.380204082E-1,2.144448906E-1
1.307468500E0,1.104852448E0,-1.140104141E1,-9.990225220E-1,1.313750500E0,6.348057091E-2,6.396394968E-1,1.635518819E-1
1.317520500E0,1.166524200E0,-1.150477570E1,3.758683777E-1,1.323802500E0,6.264383346E-2,7.533190250E-1,9.504714608E-2
1.327572500E0,1.028211823E0,-1.174457703E1,7.994874573E-1,1.333854500E0,3.565935045E-2,7.364918590E-1,4.740133137E-2
1.337624500E0,5.508544922E-1,-1.193782516E1,3.350033569E-1,1.343906500E0,-2.480950952E-2,6.565370560E-1,4.482862353E-2
1.347676500E0,6.496490479E-2,-1.194351334E1,-6.364764404E-1,1.353958500E0,-1.045757085E-1,5.974481702E-1,8.383674175E-2
1.357728500E0,-1.336720276E-1,-1.192435318E1,-1.661395111E0,1.364010500E0,-2.191854268E-1,5.620903373E-1,1.320727319E-1
1.367780500E0,2.005828857E-1,-1.197494797E1,-2.448308716E0,1.374062500E0,-3.689134121E-1,5.603874922E-1,1.519324630E-1
1.377832500E0,1.006506958E0,-1.198976715E1,-2.780467987E0,1.384114500E0,-5.631413460E-1,5.495631695E-1,1.142201200E-1
1.387884500E0,2.131717072E0,-1.212822922E1,-2.539169769E0,1.394166500E0,-7.771474123E-1,5.632635355E-1,3.890433162E-2
1.397936500E0,3.023412781E0,-1.230082031E1,-1.882036285E0,1.404218500E0,-9.975180626E-1,5.807478428E-1,-1.121241152E-1
1.407988500E0,3.575015717E0,-1.267309616E1,-1.086141357E0,1.414270500E0,-1.214498520E0,4.778406620E-1,-3.691242337E-1
1.418040500E0,3.758833466E0,-1.310270279E1,-3.067121887E-1,1.424322500E0,-1.443258166E0,2.085642815E-1,-6.477568150E-1
1.428092500E0,3.454665985E0,-1.336286179E1,2.543211365E-1,1.434374500E0,-1.712495208E0,-2.012280375E-1,-9.373074174E-1
1.438144500E0,3.353626099E0,-1.374082581E1,4.635859680E-1,1.444426500E0,-1.985065818E0,-7.625387311E-1,-1.217273951E0
1.448196500E0,3.510050812E0,-1.409169617E1,4.758604431E-1,1.454478500E0,-2.195957422E0,-1.333329320E0,-1.443490148E0
1.458248500E0,3.111729126E0,-1.396925079E1,4.492158508E-1,1.464530500E0,-2.466261864E0,-1.704438448E0,-1.587802052E0
1.468300500E0,2.171683960E0,-1.386117554E1,-4.328997803E-1,1.474582500E0,-2.861686468E0,-1.842479944E0,-1.635496855E0
1.478352500E0,1.018332367E0,-1.358275452E1,-2.085612946E0,1.484634500E0,-3.262891054E0,-1.773065329E0,-1.526279449E0
1.488404500E0,-9.048683167E-1,-1.307800415E1,-3.025508423E0,1.494686500E0,-3.441530704E0,-1.568149805E0,-1.302856684E0
1.498456500E0,-3.087778931E0,-1.260229340E1,-2.162253571E0,1.504738500E0,-3.231841564E0,-1.497229695E0,-1.010416865E0
1.508508500E0,-5.124743042E0,-1.244826370E1,1.138382721E0,1.514790500E0,-2.814737558E0,-1.470590353E0,-7.664108276E-1
1.518560500E0,-6.334527283E0,-1.276096344E1,4.916975098E0,1.524842500E0,-2.537947416E0,-1.116550803E0,-6.460909843E-1
1.528612500E0,-6.333030396E0,-1.366508331E1,6.152056732E0,1.534895500E0,-2.447799444E0,-5.293148160E-1,-6.406083107E-1
1.538665500E0,-5.607489166E0,-1.405202866E1,5.321284332E0,1.544947500E0,-2.457487345E0,1.043060720E-1,-5.510510206E-1
1.548717500E0,-5.645809479E0,-1.359323273E1,3.359913025E0,1.554999500E0,-2.412464380E0,5.473407507E-1,-3.851736188E-1
1.558769500E0,-6.377937012E0,-1.247625549E1,9.060658264E-1,1.565051500E0,-2.240416527E0,6.892886162E-1,-3.603711724E-1
1.568821500E0,-5.512287140E0,-1.178604080E1,-1.286424866E0,1.575103500E0,-2.053343534E0,6.231266260E-1,-4.753920436E-1
1.578873500E0,-3.260819092E0,-1.143561951E1,-2.759511566E0,1.585155500E0,-1.958708286E0,4.534882009E-1,-6.029980183E-1
1.588925500E0,-1.376687164E0,-1.146091690E1,-3.708687744E0,1.595207500E0,-2.085202217E0,8.887986839E-2,-6.383149624E-1
1.598977500E0,-8.517288208E-2,-1.174397827E1,-4.366419983E0,1.605259500E0,-2.235065937E0,-3.875269890E-1,-5.927333236E-1
1.609029500E0,4.011657715E-1,-1.140687927E1,-3.133883057E0,1.615311500E0,-2.364172220E0,-5.452692509E-1,-6.132529974E-1
1.619081500E0,7.752378845E-1,-1.049737061E1,-1.806443481E0,1.625363500E0,-2.319492102E0,-5.171807408E-1,-6.782965660E-1
1.629133500E0,9.590556335E-1,-9.723030853E0,-5.295986938E-1,1.635415500E0,-2.186522722E0,-4.230507910E-1,-6.907548308E-1
1.639185500E0,4.378395081E-1,-9.393565979E0,9.415420532E-2,1.645467500E0,-2.038798332E0,-2.674449682E-1,-6.506124139E-1
1.649237500E0,-3.504212952E-1,-8.930728455E0,2.300715637E-1,1.655519500E0,-1.920140386E0,-2.858961523E-1,-6.362132430E-1
1.659289500E0,-3.092568970E-1,-8.301586761E0,1.484912109E-1,1.665571500E0,-1.759421587E0,-7.178070545E-1,-7.197020054E-1
1.669341500E0,2.893482971E-1,-8.049211578E0,8.204438782E-1,1.675623500E0,-1.636357903E0,-1.200831175E0,-8.550249338E-1
1.679393500E0,5.821394348E-1,-7.714956665E0,1.165925446E0,1.685675500E0,-1.499085069E0,-1.499885082E0,-9.515770078E-1
1.689445500E0,2.405497742E-1,-7.214247894E0,1.189426575E0,1.695727500E0,-1.350893378E0,-1.664252996E0,-1.026411533E0
1.699497500E0,-1.610650635E-1,-6.560856628E0,1.114582214E0,1.705779500E0,-1.220499158E0,-1.785350323E0,-1.069830894E0
1.709549500E0,-5.691165161E-1,-5.796695709E0,9.759704590E-1,1.715831500E0,-1.090022206E0,-1.850075841E0,-1.084438324E0
1.719601500E0,-9.029223633E-1,-5.145998840E0,8.592132568E-1,1.725883500E0,-9.504688978E-1,-1.922341585E0,-1.038380504E0
1.729653500E0,-1.274449768E0,-4.580923920E0,5.589376831E-1,1.735935500E0,-8.027617335E-1,-2.003156900E0,-9.544065595E-1
1.739705500E0,-1.600621490E0,-4.258793793E0,3.957769775E-1,1.745987500E0,-6.544501781E-1,-2.064433336E0,-8.522293568E-1
1.749757500E0,-1.854942627E0,-4.177363129E0,1.246907043E-1,1.756039500E0,-4.825348556E-1,-2.043374062E0,-7.264946103E-1
1.759809500E0,-2.149979095E0,-4.267775116E0,-2.438429260E-1,1.766091500E0,-3.256032765E-1,-1.962974072E0,-5.912313461E-1
1.769861500E0,-2.317630463E0,-4.472848663E0,-8.032296753E-1,1.776143500E0,-1.570912451E-1,-1.817257643E0,-4.502710402E-1
1.779913500E0,-2.359243927E0,-4.669689331E0,-1.241368561E0,1.786195500E0,3.825321794E-2,-1.602779150E0,-2.903514206E-1
1.789965500E0,-2.167492676E0,-4.744683380E0,-1.608405304E0,1.796247500E0,2.286483496E-1,-1.341202736E0,-1.324836016E-1
1.800017500E0,-1.736538849E0,-4.795727234E0,-2.080523529E0,1.806299500E0,4.041807353E-1,-1.028837204E0,-1.686135679E-2
1.810069500E0,-1.176104279E0,-4.867128754E0,-2.505489807E0,1.816351500E0,6.338607669E-1,-6.231896281E-1,2.639343962E-2
1.820121500E0,-6.815327454E-1,-4.794230347E0,-2.745889893E0,1.826403500E0,8.839772344E-1,-3.448030055E-1,5.605908483E-2
1.830173500E0,-2.538720703E-1,-4.765639801E0,-3.021017761E0,1.836455500E0,1.112321496E0,-2.192240506E-1,6.598388404E-2
1.840225500E0,7.768844604E-2,-5.087171173E0,-3.405268707E0,1.846507500E0,1.315350175E0,-2.058379352E-1,5.967150256E-2
1.850277500E0,1.972897339E-1,-5.625751190E0,-4.072131958E0,1.856559500E0,1.424216986E0,-2.579157948E-1,3.811640665E-2
1.860329500E0,2.969824219E-1,-6.485862579E0,-5.397026825E0,1.866611500E0,1.468746781E0,-3.613489568E-1,5.047885701E-2
1.870381500E0,2.972817993E-1,-7.328909454E0,-6.572831726E0,1.876663500E0,1.433444619E0,-4.750947058E-1,1.096100882E-1
1.880433500E0,9.729766846E-2,-8.227939911E0,-7.512128448E0,1.886715500E0,1.262449503E0,-6.154668331E-1,2.158271074E-1
1.890485500E0,-1.055305481E-1,-9.301208038E0,-8.470136261E0,1.896767500E0,9.545398355E-1,-7.262772322E-1,3.150098622E-1
1.900537500E0,-1.848655701E-1,-1.060679306E1,-9.215286713E0,1.906819500E0,5.502697825E-1,-8.241650462E-1,3.070482612E-1
1.910589500E0,5.876779175E-1,-1.208182571E1,-9.749226379E0,1.916871500E0,1.403887570E-1,-8.634205461E-1,1.321717948E-1
1.920641500E0,2.202519836E0,-1.356449249E1,-1.017539017E1,1.926923500E0,-1.610140651E-1,-8.146123290E-1,-1.281206906E-1
1.930693500E0,3.257525940E0,-1.460946945E1,-1.015473312E1,1.936975500E0,-3.029762805E-1,-7.785965204E-1,-3.718926013E-1
1.940745500E0,3.436254272E0,-1.460048813E1,-9.374405823E0,1.947027500E0,-3.596575260E-1,-8.378100395E-1,-5.357024074E-1
1.950797500E0,2.971620483E0,-1.373169479E1,-8.440647583E0,1.957079500E0,-4.388772249E-1,-1.015501142E0,-6.063811183E-1
1.960849500E0,2.226170654E0,-1.223181381E1,-7.861202545E0,1.967131500E0,-5.061849952E-1,-1.184805989E0,-6.359184384E-1
1.970901500E0,1.584155731E0,-1.028047165E1,-7.431296539E0,1.977183500E0,-4.699164927E-1,-1.233460307E0,-6.329346299E-1
1.980953500E0,7.831713867E-1,-8.318800964E0,-6.683002625E0,1.987235500E0,-2.739018798E-1,-1.169395089E0,-6.187070012E-1
1.991005500E0,-1.281335449E-1,-6.597829742E0,-5.486241302E0,1.997288500E0,7.498897612E-2,-1.055711150E0,-5.936785936E-1
2.001058500E0,-1.045725403E0,-5.378764801E0,-4.271517334E0,2.007340500E0,5.097595453E-1,-7.886307836E-1,-5.455115438E-1
2.011109500E0,-1.968256989E0,-5.291795654E0,-3.288661194E0,2.017392500E0,9.493137002E-1,-3.535735905E-1,-4.462752640E-1
2.021162500E0,-2.937341766E0,-6.268664246E0,-2.442770233E0,2.027444500E0,1.323404074E0,1.909587979E-1,-2.979606688E-1
2.031214500E0,-3.864962769E0,-7.655679932E0,-1.732048187E0,2.037496500E0,1.542053580E0,8.896178007E-1,-1.335389465E-1
2.041266500E0,-5.178481293E0,-9.998009033E0,-1.247805176E0,2.047548500E0,1.330589175E0,1.624950767E0,8.913730085E-2
2.051318500E0,-6.667734375E0,-1.418255722E1,-1.922751617E0,2.057600500E0,4.482665956E-1,2.178933144E0,2.795876563E-1
2.061370500E0,-7.371570740E0,-2.039014847E1,-5.917344818E0,2.067652500E0,-5.997326970E-1,2.003564596E0,2.173273563E-1
2.071422667E0,-6.597081299E0,-2.658232178E1,-9.897268524E0,2.077704667E0,-8.267493248E-1,1.283852100E0,-2.051330805E-1
2.081474667E0,-3.029849396E0,-2.559362778E1,-5.145100708E0,2.087756667E0,1.758882701E-1,1.120071173E0,-4.861431718E-1
2.091526667E0,3.282673645E-1,-1.411684387E1,7.840246124E0,2.097808667E0,1.174310565E0,1.117315650E0,-6.100547314E-1
2.101578667E0,-8.108638000E-1,-5.708678741E0,1.225980560E1,2.107860667E0,1.633299828E0,1.297361612E0,-5.833095908E-1
2.111630667E0,-3.080144806E0,-2.959046631E0,7.147636414E0,2.117912667E0,1.720744491E0,1.689861774E0,-3.117308021E-1
2.121682667E0,-4.458029480E0,-1.909728699E0,2.864143982E0,2.127964667E0,1.469035387E0,2.185525417E0,1.526015252E-1
2.131734667E0,-5.555247803E0,-1.718127136E0,-2.117047577E0,2.138016667E0,1.438557386E0,2.877138138E0,6.489478946E-1
2.141786667E0,-5.494923248E0,-2.749033356E0,-2.096091156E0,2.148068667E0,1.874787927E0,3.440049171E0,1.065550804E0
2.151838667E0,-4.393363953E0,-4.381388855E0,3.568728790E0,2.158120667E0,2.148042917E0,3.397194862E0,1.459363818E0
2.161890667E0,-3.774101715E0,-6.850653992E0,5.667065277E0,2.168172667E0,2.108821869E0,2.961709499E0,1.671343088E0
2.171942667E0,-2.747087402E0,-9.234895935E0,4.514162750E0,2.178224667E0,1.866439104E0,2.420353413E0,1.639570475E0
2.181994667E0,-2.142045593E-1,-1.082803299E1,2.767744446E0,2.188276667E0,1.646759272E0,1.802359819E0,1.460435390E0
2.192046667E0,1.977238312E0,-1.256651779E1,1.386716309E0,2.198328667E0,1.474657178E0,1.247388005E0,1.232129455E0
2.202098667E0,3.276536407E0,-1.342932358E1,4.547543335E-1,2.208380667E0,1.428484797E0,8.259329200E-1,1.096111655E0
2.212150667E0,3.347339172E0,-1.343770615E1,-9.280700684E-3,2.218432667E0,1.576410294E0,5.262566805E-1,9.053389430E-1
2.222202667E0,3.576662292E0,-1.321466995E1,5.068460083E-1,2.228484667E0,1.714100838E0,3.872585595E-1,6.301436424E-1
2.232254667E0,4.133354645E0,-1.275722122E1,6.972500610E-1,2.238536667E0,1.648745537E0,7.524693012E-1,3.540340066E-1
2.242306667E0,3.922293549E0,-1.199785034E1,-3.477268982E-1,2.248588667E0,1.561108232E0,1.375330806E0,1.308646798E-1
2.252358667E0,3.140469360E0,-1.050320847E1,-1.119821320E0,2.258640667E0,1.614116669E0,1.790016413E0,2.787012607E-2
2.262410667E0,1.639989624E0,-9.078920288E0,-5.141807556E-1,2.268692667E0,1.635034919E0,1.856089592E0,-5.555478856E-5
2.272462667E0,3.927832031E-1,-8.129295044E0,-5.848338318E-1,2.278744667E0,1.632892728E0,1.635791063E0,1.099709608E-2
2.282514667E0,-6.245013428E-1,-7.382348328E0,-9.602531433E-1,2.288796667E0,1.594849110E0,1.336437345E0,9.083920717E-2
2.292566667E0,-1.448837128E0,-6.891219635E0,-1.255139923E0,2.298848667E0,1.469148159E0,1.158015370E0,2.073706239E-1
2.302618667E0,-1.794917450E0,-6.716383209E0,-1.642684021E0,2.308900667E0,1.270631313E0,1.078750372E0,3.166715205E-1
2.312670667E0,-1.667083282E0,-7.205865326E0,-1.559157715E0,2.318952667E0,1.063214779E0,1.025878668E0,3.664193749E-1
2.322722667E0,-9.333091736E-1,-8.027806091E0,-8.656498718E-1,2.329004667E0,9.422926307E-1,9.782626033E-1,3.985342383E-1
2.332774667E0,-8.801696777E-2,-8.766968994E0,-1.965412903E-1,2.339056667E0,9.531788826E-1,1.110777020E0,3.830042779E-1
2.342826667E0,5.369334412E-1,-9.183253326E0,4.580474854E-1,2.349108667E0,1.007721186E0,1.291182995E0,4.043452144E-1
2.352878667E0,7.390132141E-1,-9.557774506E0,7.066804504E-1,2.359160667E0,1.038375497E0,1.329674482E0,4.469669759E-1
2.362930667E0,9.253756714E-1,-9.735005951E0,8.503816223E-1,2.369212667E0,9.219439030E-1,1.397253394E0,5.871002674E-1
2.372982667E0,6.312373352E-1,-9.531279602E0,2.412982178E-1,2.379264667E0,8.157215714E-1,1.510828733E0,6.574162245E-1
2.383034667E0,5.468128967E-1,-9.374555511E0,-2.824626160E-1,2.389316667E0,8.092081547E-1,1.448020458E0,7.327547669E-1
2.393086667E0,5.463638306E-1,-9.032516785E0,7.933502197E-2,2.399368667E0,9.121286869E-1,1.175276518E0,8.341966867E-1
2.403138667E0,2.374063110E-1,-8.716972961E0,6.274951172E-1,2.409420667E0,1.074633598E0,7.898997068E-1,9.255331159E-1
2.413190667E0,-3.891906738E-2,-8.751101990E0,9.363029480E-1,2.419472667E0,1.216698885E0,4.023418427E-1,9.594939947E-1
2.423242667E0,-1.227447510E-1,-8.950487366E0,8.780740356E-1,2.429524667E0,1.248253822E0,1.861274391E-1,9.587731957E-1
2.433294667E0,9.131011963E-3,-9.281898193E0,3.688330078E-1,2.439576667E0,1.216611385E0,1.980759799E-1,9.483416080E-1
2.443346667E0,3.116519165E-1,-9.585616608E0,-5.284011841E-2,2.449628667E0,1.196405172E0,3.776089549E-1,9.253858924E-1
2.453399667E0,9.508227539E-1,-9.790690155E0,1.082249451E-1,2.459681667E0,1.169040918E0,6.410768032E-1,8.869985342E-1
2.463451667E0,1.744771729E0,-9.821526031E0,3.520678711E-1,2.469733667E0,1.090034604E0,8.343196511E-1,7.896896005E-1
2.473503667E0,2.660567322E0,-9.735005951E0,3.137475586E-1,2.479785667E0,9.920803308E-1,8.477747440E-1,6.513599753E-1
2.483555667E0,3.216361542E0,-9.774224396E0,-1.133143616E-1,2.489837667E0,9.278035164E-1,7.761439085E-1,4.862054288E-1
2.493607667E0,3.302432556E0,-1.002899460E1,-7.174580383E-1,2.499889667E0,8.520357609E-1,7.290906906E-1,3.593888879E-1
2.503659667E0,3.009491730E0,-1.029678772E1,-1.397344208E0,2.509941667E0,6.950838566E-1,7.379354835E-1,2.631596923E-1
2.513711667E0,2.574645996E0,-1.050141220E1,-1.926194458E0,2.519993667E0,4.806692898E-1,7.428487539E-1,2.109162062E-1
2.523763667E0,2.098186798E0,-1.066726730E1,-2.003882904E0,2.530045667E0,2.619244456E-1,6.739484072E-1,1.731163114E-1
2.533815667E0,1.826052704E0,-1.080782501E1,-1.686243439E0,2.540097667E0,9.612964094E-2,5.826677680E-1,1.196663901E-1
2.543867667E0,1.592388611E0,-1.074510544E1,-1.138981476E0,2.550149667E0,3.502276726E-3,5.331208110E-1,5.858439580E-2
2.553919667E0,1.197509766E0,-1.051248917E1,-4.903802490E-1,2.560201667E0,-6.602434441E-4,5.531392694E-1,1.133512706E-2
2.563971667E0,7.809260559E-1,-1.029154861E1,2.014810181E-1,2.570253667E0,4.486640543E-2,5.729473233E-1,-3.730852390E-3
2.574023667E0,4.854405212E-1,-1.025367737E1,5.013075256E-1,2.580305667E0,7.769679278E-2,5.165349245E-1,2.280994505E-2
2.584075667E0,1.375639343E-1,-1.043839325E1,1.398092651E-1,2.590357667E0,6.265717745E-2,3.554498255E-1,5.762351304E-2
2.594127667E0,1.916015625E-2,-1.094838272E1,-4.200265503E-1,2.600409667E0,5.259403028E-3,1.471200585E-1,1.115996614E-1
2.604179667E0,7.753875732E-2,-1.159713364E1,-7.229965210E-1,2.610461667E0,-8.844667673E-2,-2.490128577E-2,1.774072945E-1
2.614231667E0,4.267625427E-1,-1.214140182E1,-8.446934509E-1,2.620513667E0,-2.283545136E-1,-1.097091138E-1,2.090637535E-1
2.624283667E0,1.202150116E0,-1.248119522E1,-8.291258240E-1,2.630565667E0,-4.141632915E-1,-1.231086254E-1,1.824673265E-1
2.634335667E0,2.131268005E0,-1.292906387E1,-8.096662903E-1,2.640617667E0,-6.342328191E-1,-1.126181632E-1,7.808259130E-2
2.644387667E0,2.911744995E0,-1.352901627E1,-6.661148071E-1,2.650669667E0,-8.761377931E-1,-1.503368169E-1,-1.038380265E-1
2.654439667E0,3.338357849E0,-1.383063904E1,-4.517605591E-1,2.660721667E0,-1.125426412E0,-3.005127311E-1,-3.465252221E-1
2.664491667E0,3.510499878E0,-1.375714188E1,-2.267784119E-1,2.670773667E0,-1.382841110E0,-6.118513346E-1,-6.423420906E-1
2.674543667E0,3.720363464E0,-1.381013168E1,-1.056802368E-1,2.680825667E0,-1.619430780E0,-9.976187348E-1,-9.638072252E-1
2.684595667E0,3.900289307E0,-1.412597488E1,-2.963836670E-2,2.690877667E0,-1.733714581E0,-1.411353946E0,-1.264513254E0
2.694647667E0,3.736230469E0,-1.443807587E1,2.730322266E-1,2.700929667E0,-1.861740947E0,-1.738344908E0,-1.501856327E0
2.704699667E0,2.782863007E0,-1.442445419E1,-3.487747192E-2,2.710981667E0,-2.228692293E0,-1.817026138E0,-1.612256765E0
2.714751667E0,1.062041473E0,-1.376178223E1,-2.002835083E0,2.721033667E0,-2.881825447E0,-1.661442399E0,-1.583321810E0
2.724803667E0,-9.871971130E-1,-1.263582367E1,-4.563110962E0,2.731085667E0,-3.468370914E0,-1.419047594E0,-1.446047306E0
2.734855667E0,-2.812201996E0,-1.179172897E1,-5.136269073E0,2.741137667E0,-3.578932762E0,-1.218405366E0,-1.238243461E0
2.744907667E0,-4.532125397E0,-1.139460480E1,-2.154918823E0,2.751189667E0,-3.216943026E0,-1.286247849E0,-9.537168741E-1
2.754959667E0,-6.473139038E0,-1.174352921E1,2.935545502E0,2.761241667E0,-2.809789419E0,-1.316020131E0,-7.652300596E-1
2.765011667E0,-7.179071045E0,-1.298399963E1,6.227948914E0,2.771293667E0,-2.614069939E0,-9.294551015E-1,-7.718927264E-1
2.775063667E0,-6.030060425E0,-1.386446869E1,6.908882904E0,2.781345667E0,-2.630822897E0,-3.533334732E-1,-8.082619309E-1
2.785115667E0,-4.785249023E0,-1.365325790E1,5.448070679E0,2.791397667E0,-2.690537453E0,5.261454359E-2,-6.295329332E-1
2.795167667E0,-5.010380859E0,-1.262684235E1,2.919079742E0,2.801449667E0,-2.637372732E0,8.809237182E-2,-4.087155759E-1
2.805219667E0,-5.446424103E0,-1.192719727E1,7.499404907E-2,2.811501667E0,-2.361382961E0,-1.749841869E-1,-3.532541990E-1
2.815271667E0,-4.414020996E0,-1.174936707E1,-1.853745117E0,2.821553667E0,-2.127536297E0,-3.685784340E-1,-3.907190263E-1
2.825323667E0,-2.452649689E0,-1.176358749E1,-2.615211639E0,2.831605667E0,-2.044766903E0,-4.934331477E-1,-4.259053469E-1
2.835375667E0,-8.550219727E-1,-1.197285233E1,-3.051105194E0,2.841657667E0,-2.176118135E0,-7.586381435E-1,-3.949631453E-1
2.845427667E0,2.053729248E-1,-1.199635345E1,-2.999163208E0,2.851709667E0,-2.381498337E0,-8.604754210E-1,-4.272629321E-1
2.855479667E0,9.798623657E-1,-1.135134476E1,-2.379900970E0,2.861761667E0,-2.486238718E0,-7.316634059E-1,-5.014213324E-1
2.865531667E0,1.487756195E0,-1.042611877E1,-1.533710632E0,2.871813667E0,-2.415119171E0,-5.012441874E-1,-5.252946019E-1
2.875583667E0,1.418001251E0,-1.000983444E1,-1.035845947E0,2.881865667E0,-2.201260567E0,-5.253723860E-1,-5.316520929E-1
2.885635667E0,1.073866882E0,-9.694140930E0,-1.922003174E-1,2.891917667E0,-1.999260187E0,-8.358629346E-1,-6.402409077E-1
2.895687667E0,1.529369659E0,-9.258546753E0,7.379653931E-2,2.901969667E0,-1.869636774E0,-1.071176648E0,-8.268773556E-1
2.905739667E0,1.280287628E0,-8.640182648E0,4.478686523E-1,2.912021667E0,-1.719771385E0,-1.279898763E0,-9.885680676E-1
2.915791667E0,6.403683472E-1,-8.198900299E0,4.778063965E-1,2.922073667E0,-1.556791782E0,-1.472984672E0,-1.104118943E0
2.925844667E0,3.191363525E-1,-7.488178253E0,2.363584900E-1,2.932126667E0,-1.381628036E0,-1.611592054E0,-1.150093079E0
2.935896667E0,-2.146536255E-1,-6.346352692E0,1.122665405E-2,2.942178667E0,-1.164809227E0,-1.614539623E0,-1.135100603E0
2.945948667E0,-1.073567505E0,-5.101541290E0,1.184037781E-1,2.952230667E0,-9.377623796E-1,-1.630530953E0,-1.109635592E0
2.956000667E0,-1.577569427E0,-4.297712860E0,3.222798157E-1,2.962282667E0,-7.719483972E-1,-1.740559936E0,-1.033132792E0
2.966052667E0,-1.853445740E0,-3.985611877E0,4.457730103E-1,2.972334667E0,-6.763745546E-1,-1.878182530E0,-9.157226682E-1
2.976104667E0,-2.206112366E0,-4.024680634E0,4.671784973E-1,2.982386667E0,-5.737197995E-1,-2.004967451E0,-7.940513492E-1
2.986156667E0,-2.285148010E0,-3.988156586E0,5.412744141E-1,2.992438667E0,-4.370792508E-1,-2.053884745E0,-6.698057652E-1
2.996208667E0,-2.227218475E0,-4.024980011E0,4.290078735E-1,3.002490667E0,-2.836990058E-1,-2.037819862E0,-5.271391869E-1
3.006260667E0,-2.304308167E0,-4.239334259E0,4.116439819E-2,3.012542667E0,-1.005765796E-1,-1.937419057E0,-3.962264061E-1
3.016312667E0,-2.357896729E0,-4.503684540E0,-3.712280273E-1,3.022594667E0,1.196772307E-1,-1.795287967E0,-2.649405599E-1
3.026364667E0,-2.276466064E0,-4.687801666E0,-7.307803345E-1,3.032646667E0,3.503130674E-1,-1.619939685E0,-1.547104120E-1
3.036416667E0,-1.859433289E0,-4.688849487E0,-1.162632294E0,3.042698667E0,5.713288188E-1,-1.375726223E0,-7.454208285E-2
3.046468667E0,-1.169667664E0,-4.598587189E0,-1.702409821E0,3.052750667E0,7.547758818E-1,-1.042489171E0,-2.678521536E-2
3.056520667E0,-5.507048035E-1,-4.703518982E0,-2.470462646E0,3.062802667E0,9.246813059E-1,-7.226200700E-1,-5.782993976E-3
3.066572667E0,-8.681945801E-3,-4.902006226E0,-3.420986023E0,3.072859042E0,1.209412813E0,-3.055289090E-1,-4.255321249E-2
3.076629042E0,2.850073242E-1,-5.082530823E0,-4.225562897E0,3.082911042E0,1.457727551E0,-5.738835782E-2,-5.821073428E-2
3.086681042E0,4.632865906E-1,-5.403313751E0,-5.327271881E0,3.092963042E0,1.584601641E0,-2.093715221E-2,-6.281483918E-2
3.096733042E0,4.981640625E-1,-6.030210114E0,-6.570137329E0,3.103015042E0,1.586346269E0,-9.923063219E-2,-2.866939083E-2
3.106785042E0,2.734812927E-1,-6.700965271E0,-7.743247833E0,3.113067042E0,1.501985788E0,-2.471785396E-1,5.389353633E-2
3.116837042E0,-1.323248291E-1,-7.562423859E0,-8.573720856E0,3.123119042E0,1.316064954E0,-4.209553897E-1,1.765310466E-1
3.126889042E0,-3.836521912E-1,-8.624465332E0,-9.188791809E0,3.133171042E0,1.014179707E0,-5.116372705E-1,2.719964385E-1
3.136941042E0,-1.826202393E-1,-9.952204285E0,-9.956844635E0,3.143223042E0,6.156027317E-1,-5.042808056E-1,2.599901259E-1
3.146993042E0,6.848258972E-1,-1.159189453E1,-1.075947556E1,3.153275042E0,2.062790841E-1,-5.180509686E-1,1.269498914E-1
3.157045042E0,1.955683136E0,-1.331062042E1,-1.094703552E1,3.163327042E0,-1.246841997E-1,-6.284893155E-1,-1.094493270E-1
3.167097042E0,3.217559052E0,-1.456426346E1,-1.022344025E1,3.173379042E0,-3.513441682E-1,-7.677642107E-1,-3.836860359E-1
3.177149042E0,3.856879578E0,-1.490435623E1,-9.101523285E0,3.183431042E0,-4.860076904E-1,-8.548330665E-1,-6.062485576E-1
3.187201042E0,3.904929657E0,-1.413106430E1,-7.891589355E0,3.193483042E0,-5.256258249E-1,-9.231844544E-1,-7.516101599E-1
3.197253042E0,3.426075439E0,-1.224768082E1,-6.848857727E0,3.203535042E0,-5.052478313E-1,-1.085426092E0,-8.071753979E-1
3.207305042E0,2.484234009E0,-9.883497162E0,-6.327192535E0,3.213587042E0,-4.149391353E-1,-1.270990849E0,-8.180087209E-1
3.217357042E0,1.419647827E0,-7.415279846E0,-6.160139923E0,3.223639042E0,-2.266635150E-1,-1.336808801E0,-8.127079606E-1
3.227409042E0,8.475375366E-1,-5.004093933E0,-5.687872009E0,3.233691042E0,7.099572569E-2,-1.187405348E0,-7.778574228E-1
3.237461042E0,5.119354248E-1,-3.173700256E0,-4.627626801E0,3.243743042E0,6.137628555E-1,-8.481117487E-1,-7.035922408E-1
3.247513042E0,-9.430389404E-3,-2.821632385E0,-1.851948853E0,3.253795042E0,1.346848607E0,-2.642067373E-1,-5.622197390E-1
3.257565042E0,-1.328188019E0,-3.783232727E0,1.733395386E0,3.263847042E0,2.222552538E0,7.581384778E-1,-3.889803290E-1
3.267617042E0,-3.150947571E0,-4.998405762E0,5.129982147E0,3.273899042E0,2.754227877E0,1.823581100E0,-9.180397540E-2
3.277669042E0,-5.571863251E0,-7.002887421E0,5.927673340E0,3.283951042E0,2.403226852E0,2.387046337E0,3.032610714E-1
3.287721042E0,-8.576864319E0,-1.173155411E1,1.048569489E0,3.294003042E0,7.077416182E-1,2.402439594E0,7.617260814E-1
3.297773042E0,-1.163246017E1,-2.027099625E1,-1.007629623E1,3.304055042E0,-1.647903800E0,8.627906442E-1,1.099379063E0
3.307825042E0,-1.283760406E1,-3.343028137E1,-2.289518921E1,3.314107042E0,-1.687347174E0,4.844223857E-1,4.829827249E-1
3.317877042E0,-5.851781158E0,-3.714854919E1,-7.429350586E0,3.324159042E0,2.593889534E-1,1.169461966E0,-2.915737033E-1
3.327929042E0,1.545985107E0,-2.292392944E1,1.622535919E1,3.334211042E0,1.502631068E0,1.298759818E0,-6.102019548E-1
3.337981042E0,1.492845612E0,-1.086306015E1,1.541868668E1,3.344263042E0,1.853175998E0,1.601256132E0,-7.068076134E-1
3.348033042E0,-5.387297058E-1,-5.165158997E0,7.260950775E0,3.354315042E0,1.878015995E0,2.161974907E0,-5.704371333E-1
3.358085042E0,-1.973047028E0,-2.298021240E0,3.651506653E0,3.364367042E0,1.855960965E0,2.945970535E0,-1.271310300E-1
3.368137042E0,-3.705394592E0,-1.075962524E0,4.860392761E-1,3.374419042E0,1.983302832E0,3.738521814E0,5.047721863E-1
3.378189042E0,-5.029391327E0,-1.735640717E0,7.188052368E-1,3.384471042E0,2.138994217E0,4.231928349E0,1.031350732E0
3.388241042E0,-4.432432709E0,-3.890559540E0,2.936593323E0,3.394523042E0,2.222913027E0,3.970360994E0,1.472613811E0
3.398293042E0,-3.728446655E0,-6.137237549E0,4.550237732E0,3.404575042E0,2.098690510E0,3.130790234E0,1.803101659E0
3.408345042E0,-3.084186401E0,-7.766449585E0,4.096531219E0,3.414627042E0,1.888885617E0,1.985785246E0,1.870555758E0
3.418398042E0,-1.541195068E0,-9.194629669E0,3.338357849E0,3.424680042E0,1.726442814E0,8.021312952E-1,1.630835533E0
3.428449042E0,7.626640320E-1,-1.070678513E1,3.524121552E0,3.434732042E0,1.507837176E0,-4.802614748E-1,1.275105357E0
3.438502042E0,2.487377472E0,-1.244676682E1,2.911445618E0,3.444784042E0,1.406539559E0,-1.441974521E0,9.613820314E-1
3.448554042E0,3.247047729E0,-1.418525162E1,2.321821747E0,3.454836042E0,1.660826206E0,-1.495186329E0,6.275885701E-1
3.458606042E0,4.351900177E0,-1.464659225E1,1.926643524E0,3.464888042E0,1.977549553E0,-3.743579686E-1,1.622163057E-1
3.468658042E0,5.389392700E0,-1.309446991E1,8.075706482E-1,3.474940042E0,2.078155279E0,1.020962834E0,-1.313401666E-2
3.478710042E0,4.262985077E0,-1.077983322E1,-5.574407959E-1,3.484992042E0,2.035888195E0,1.942817926E0,1.243446022E-2
3.488762042E0,1.882036285E0,-8.544082489E0,-1.014141083E0,3.495044042E0,1.928341031E0,2.196792126E0,-2.776434459E-2
3.498814042E0,1.920506287E-1,-7.289691010E0,-9.587562561E-1,3.505096042E0,1.784544706E0,1.915867567E0,-4.530926235E-3
3.508866042E0,-1.344803467E0,-6.578220520E0,-8.725355530E-1,3.515148042E0,1.655457497E0,1.532107830E0,3.696335852E-2
3.518918042E0,-2.032174072E0,-6.430178375E0,-5.346881104E-1,3.525200042E0,1.512798071E0,1.427826166E0,1.892037690E-1
3.528970042E0,-2.770738220E0,-6.051316223E0,-4.167333984E-1,3.535252042E0,1.455608487E0,1.398699164E0,3.303830922E-1
3.539022042E0,-2.495161285E0,-6.288722534E0,1.853146362E-1,3.545304042E0,1.385069847E0,1.343780756E0,4.623413980E-1
3.549074042E0,-1.937121735E0,-6.894812164E0,5.105882263E-1,3.555356042E0,1.298872232E0,1.312920332E0,5.884760618E-1
3.559126042E0,-1.712888031E0,-7.601342926E0,4.635859680E-1,3.565408042E0,1.120309114E0,1.415331125E0,7.145911455E-1
3.569178042E0,-1.380279694E0,-8.035589905E0,-5.635780334E-1,3.575460042E0,9.793346524E-1,1.498452663E0,8.384878635E-1
3.579230042E0,-8.361611938E-1,-8.861721954E0,-1.118474121E0,3.585512042E0,9.677211046E-1,1.367405176E0,9.415407181E-1
3.589282042E0,-1.281335449E-1,-1.010743149E1,-8.819659424E-1,3.595564042E0,1.015203834E0,1.035735726E0,9.450987577E-1
3.599334042E0,5.281018066E-1,-1.131526978E1,-4.433779907E-1,3.605616042E0,1.027279973E0,6.743847132E-1,8.808622360E-1
3.609386042E0,1.011147308E0,-1.172406967E1,2.670446777E-1,3.615668042E0,1.031920910E0,4.727768600E-1,8.186810017E-1
3.619438042E0,1.379830627E0,-1.134026779E1,1.005159760E0,3.625720042E0,1.065785170E0,4.163782895E-1,7.857179642E-1
3.629490042E0,2.047891388E0,-1.064810715E1,1.291065216E0,3.635772042E0,1.133973241E0,4.469326138E-1,7.420984507E-1
3.639542042E0,2.871029663E0,-1.014215927E1,1.205293579E0,3.645824042E0,1.197917104E0,5.794299245E-1,6.285029054E-1
3.649594042E0,3.621269531E0,-9.992620239E0,1.175804901E0,3.655876042E0,1.207455635E0,7.829917073E-1,4.842482805E-1
3.659646042E0,4.012705536E0,-1.003812561E1,9.675878906E-1,3.665928042E0,1.176312089E0,9.943511486E-1,3.349892795E-1
3.669698042E0,3.995491333E0,-9.995614014E0,6.007008362E-1,3.675980042E0,1.141371965E0,1.082042456E0,1.863465607E-1
3.679750042E0,3.843108215E0,-9.782457275E0,-2.877017212E-1,3.686032042E0,1.033966422E0,1.017689228E0,6.172900274E-2
3.689802042E0,3.803590393E0,-9.736652527E0,-2.286944275E0,3.696084042E0,7.715440392E-1,9.465761781E-1,4.671820998E-2
3.699854042E0,2.559976501E0,-9.885293427E0,-4.590503998E0,3.706136042E0,4.157563746E-1,8.734838367E-1,8.149377257E-2
3.709906042E0,6.301895142E-1,-1.027268784E1,-5.170996857E0,3.716188042E0,1.065097973E-1,7.674978971E-1,1.985159963E-1
3.719958042E0,-7.923023987E-1,-1.053060150E1,-3.709286499E0,3.726240042E0,-7.024340332E-2,6.313078403E-1,3.333315849E-1
3.730010042E0,-1.343156891E0,-1.059032730E1,-1.449585571E0,3.736292042E0,-9.218419343E-2,4.771556258E-1,4.127213061E-1
3.740062042E0,-9.714797974E-1,-1.075782898E1,6.854246521E-1,3.746344042E0,-6.049523130E-2,2.918933630E-1,4.179485738E-1
3.750114042E0,-4.971162415E-1,-1.147783173E1,1.432521057E0,3.756396042E0,-2.798580937E-2,1.923682094E-1,3.813847601E-1
3.760166042E0,-8.292755127E-2,-1.241892471E1,1.013242950E0,3.766448042E0,-3.261625022E-2,2.811859548E-1,3.485969901E-1
3.770218042E0,2.968327332E-1,-1.304851547E1,-7.798782349E-2,3.776500042E0,-8.326505870E-2,4.764744639E-1,3.060055673E-1
3.780270042E0,7.054829407E-1,-1.317126022E1,-1.373244324E0,3.786552042E0,-1.752144247E-1,6.247675419E-1,2.334379107E-1
3.790322042E0,1.278491364E0,-1.282982025E1,-2.276166687E0,3.796604042E0,-3.094540238E-1,6.735472679E-1,1.308050007E-1
3.800374042E0,1.897903290E0,-1.225591370E1,-2.665956116E0,3.806656042E0,-4.805578589E-1,6.671684384E-1,2.903656289E-2
3.810426042E0,2.329455872E0,-1.195788345E1,-2.711760864E0,3.816708042E0,-6.955101490E-1,6.827049851E-1,-7.428768277E-2
3.820478042E0,2.548450470E0,-1.212493607E1,-2.653531952E0,3.826760042E0,-9.812297821E-1,7.267786860E-1,-1.877433956E-1
3.830530042E0,2.753374329E0,-1.253852600E1,-2.594554596E0,3.836812042E0,-1.325761795E0,6.974083781E-1,-3.724855483E-1
3.840582042E0,3.133134613E0,-1.287008652E1,-2.288590851E0,3.846864042E0,-1.691388249E0,4.990566969E-1,-6.209416986E-1
3.850634042E0,3.658691711E0,-1.304013290E1,-1.571132813E0,3.856916042E0,-2.068866968E0,1.259649694E-1,-9.232046008E-1
3.860686042E0,4.216581573E0,-1.322365128E1,-8.340655518E-1,3.866968042E0,-2.381194353E0,-4.197124839E-1,-1.231332302E0
3.870738042E0,4.396058350E0,-1.349593506E1,-7.529342651E-2,3.877020042E0,-2.651233435E0,-1.145069599E0,-1.515594363E0
3.880790042E0,4.344116364E0,-1.354667953E1,2.436932373E-1,3.887072042E0,-3.041574240E0,-1.655893445E0,-1.813338399E0
3.890842042E0,4.122127991E0,-1.324565552E1,-8.482859802E-1,3.897124042E0,-3.440795898E0,-1.833199620E0,-1.983798862E0
3.900895042E0,2.488125916E0,-1.372211472E1,-2.131268005E0,3.907176042E0,-3.666860819E0,-2.068629265E0,-1.912270427E0
3.910947042E0,-3.836521912E-1,-1.492740829E1,-1.880838776E0,3.917229042E0,-3.470942259E0,-2.520834208E0,-1.588837028E0
3.920999042E0,-3.626957703E0,-1.521630753E1,1.958676910E0,3.927281042E0,-2.898983479E0,-2.828393936E0,-1.240737438E0
3.931051042E0,-5.744005280E0,-1.476918732E1,7.185956726E0,3.937333042E0,-2.561798811E0,-2.450664759E0,-1.107804894E0
3.941103042E0,-5.413941650E0,-1.461470856E1,8.462352448E0,3.947385042E0,-2.631828308E0,-1.509159923E0,-1.039268255E0
3.951155042E0,-4.906047821E0,-1.483744537E1,5.859265594E0,3.957437042E0,-2.821837187E0,-4.448709488E-1,-8.298626542E-1
3.961207042E0,-5.862109680E0,-1.540341843E1,2.660267944E0,3.967489042E0,-2.842779636E0,3.399178684E-1,-5.793920755E-1
3.971259042E0,-7.020850067E0,-1.525717255E1,-4.161346436E-2,3.977541042E0,-2.651132345E0,6.496149302E-1,-4.848545492E-1
3.981311042E0,-6.491850128E0,-1.460467941E1,-1.963167572E0,3.987593042E0,-2.432702541E0,7.347460985E-1,-5.032790899E-1
3.991363042E0,-5.199138336E0,-1.377749954E1,-3.158581696E0,3.997645042E0,-2.324663162E0,7.161624432E-1,-6.496555805E-1
4.001415042E0,-3.214415588E0,-1.307201660E1,-4.259991302E0,4.007697042E0,-2.316433907E0,5.143262744E-1,-7.594374418E-1
4.011467042E0,-1.649869080E0,-1.272578659E1,-4.129911804E0,4.017749042E0,-2.335014343E0,1.348212957E-1,-7.311190963E-1
4.021519042E0,-1.141675873E0,-1.209020828E1,-2.624492340E0,4.027801042E0,-2.376847029E0,-2.499221265E-1,-7.938749194E-1
4.031571042E0,2.053729248E-1,-1.059062668E1,-1.201551361E0,4.037853042E0,-2.454617500E0,-5.228089690E-1,-9.204862118E-1
4.041623042E0,1.648072815E0,-9.458530884E0,-6.613247681E-1,4.047905042E0,-2.504094601E0,-5.327998400E-1,-9.349338412E-1
4.051675042E0,8.283773804E-1,-9.032067719E0,-7.078779602E-1,4.057957042E0,-2.366807222E0,-3.722932041E-1,-9.010600448E-1
4.061727042E0,-4.492158508E-1,-8.181686096E0,2.516267395E-1,4.068009042E0,-2.168938398E0,-3.398559093E-1,-8.856192827E-1
4.071774375E0,-6.691085815E-1,-7.269183655E0,7.819738770E-1,4.078056375E0,-1.917691588E0,-6.938775778E-1,-8.824080825E-1
4.081826375E0,-4.355941772E-1,-6.865473175E0,1.325194244E0,4.088108375E0,-1.813232541E0,-1.378711343E0,-9.321447611E-1
4.091878375E0,-9.385482788E-2,-6.632407837E0,1.392703857E0,4.098160375E0,-1.610209584E0,-1.833361268E0,-9.433626533E-1
4.101930375E0,2.288740540E-1,-6.728358307E0,1.546284485E0,4.108212375E0,-1.375858545E0,-2.044579744E0,-9.798325300E-1
4.111982375E0,5.679190063E-1,-6.490053864E0,1.759291534E0,4.118264375E0,-1.194150090E0,-2.221443653E0,-1.071742415E0
4.122034375E0,4.965174866E-1,-5.776338043E0,2.072590027E0,4.128316375E0,-1.026146173E0,-2.398267746E0,-1.171862006E0
4.132086375E0,3.592529297E-2,-4.940326538E0,2.298919373E0,4.138368375E0,-9.035261273E-1,-2.629117966E0,-1.206942439E0
4.142138375E0,-7.908055115E-1,-4.239483948E0,2.186353455E0,4.148420375E0,-7.725563645E-1,-2.840990067E0,-1.171823621E0
4.152190375E0,-1.758842468E0,-3.687431946E0,2.106269989E0,4.158472375E0,-6.258692145E-1,-2.993131161E0,-1.079789281E0
4.162242375E0,-2.450104980E0,-3.253634033E0,1.855092316E0,4.168524375E0,-4.914874732E-1,-3.080692291E0,-9.380365610E-1
4.172294375E0,-2.858755188E0,-2.949765930E0,1.382375336E0,4.178576375E0,-3.151340783E-1,-3.039373159E0,-7.770431042E-1
4.182346375E0,-2.956651611E0,-2.723885651E0,8.292755127E-1,4.188628375E0,-1.080860794E-1,-2.902446985E0,-5.598540306E-1
4.192398375E0,-2.912044373E0,-2.555186462E0,8.996292114E-2,4.198680375E0,2.574558258E-1,-2.490854979E0,-3.703449965E-1
4.202450375E0,-2.757565613E0,-2.608924713E0,-7.411088562E-1,4.208732375E0,7.159014344E-1,-1.961530805E0,-2.001492679E-1
4.212502375E0,-2.507884827E0,-2.660118256E0,-1.845212860E0,4.218784375E0,1.120095372E0,-1.441579103E0,-5.803868175E-2
4.222554375E0,-2.026785278E0,-3.013982391E0,-3.219205627E0,4.228836375E0,1.465522885E0,-8.162500262E-1,-3.860664321E-3
4.232606375E0,-1.336570587E0,-3.685036926E0,-4.502786407E0,4.238888375E0,1.724652171E0,-2.345020473E-1,-1.590908505E-4
4.242658375E0,-8.650511169E-1,-4.756658478E0,-5.802683258E0,4.248940375E0,1.833522439E0,1.038088948E-1,-3.683518386E-3
4.252710375E0,-5.083428955E-1,-6.048172760E0,-7.164850616E0,4.258992375E0,1.781346202E0,2.221772075E-1,5.208665133E-2
4.262762375E0,-7.231462097E-1,-7.354356537E0,-8.505163422E0,4.269044375E0,1.614897490E0,9.709039330E-2,1.589920670E-1
4.272814375E0,-1.043629761E0,-8.562344513E0,-9.280700684E0,4.279096375E0,1.319229245E0,-1.550282985E-1,2.889358401E-1
4.282866375E0,-1.133742371E0,-9.730066223E0,-9.661808167E0,4.289148375E0,8.563013077E-1,-4.273578227E-1,3.507214487E-1
4.292918375E0,-5.078938293E-1,-1.153501282E1,-1.021326141E1,4.299200375E0,3.223659694E-1,-7.726758718E-1,2.427321374E-1
4.302970375E0,1.505569153E0,-1.390518402E1,-1.065259781E1,4.309252375E0,-9.736845642E-2,-1.083241701E0,1.872992143E-2
4.313022375E0,3.418890381E0,-1.560415100E1,-1.028855484E1,4.319304375E0,-2.981179059E-1,-1.167792678E0,-2.347727716E-1
4.323074375E0,4.087100830E0,-1.557571014E1,-9.243877258E0,4.329356375E0,-3.617996871E-1,-1.072228312E0,-4.236111343E-1
4.333126375E0,3.656296692E0,-1.406445282E1,-8.324040070E0,4.339408375E0,-3.222586513E-1,-1.014051080E0,-5.629319549E-1
4.343178375E0,2.885399780E0,-1.201207077E1,-7.973618774E0,4.349460375E0,-2.349384129E-1,-1.004814148E0,-6.555234194E-1
4.353230375E0,2.123484192E0,-1.018497025E1,-7.913743286E0,4.359512375E0,-1.309456974E-1,-1.064738989E0,-7.040829659E-1
4.363282375E0,1.398990784E0,-8.600664825E0,-7.622598724E0,4.369564375E0,-3.827909380E-2,-1.053210020E0,-7.245182991E-1
4.373334375E0,4.216731262E-1,-7.439379730E0,-7.126380615E0,4.379616375E0,1.013104897E-2,-8.780901432E-1,-6.931864619E-1
4.383386375E0,-1.484163666E0,-7.709418182E0,-6.995402985E0,4.389668375E0,1.727402061E-1,-5.866199732E-1,-5.500702858E-1
4.393438375E0,-3.207380219E0,-9.703122253E0,-5.631738739E0,4.399720375E0,4.774802625E-1,2.186244540E-2,-3.034606576E-1
4.403490375E0,-4.628524933E0,-1.235620514E1,-2.804567871E0,4.409773375E0,5.699790716E-1,7.139724493E-1,1.600972936E-2
4.413543375E0,-6.563251648E0,-1.555804688E1,-1.314117279E0,4.419825375E0,-6.159675494E-2,1.182630897E0,2.747251093E-1
4.423595375E0,-7.867639160E0,-2.003987686E1,-4.527185669E0,4.429877375E0,-8.532845378E-1,1.159396768E0,2.668554783E-1
4.433647375E0,-6.479276276E0,-2.450179825E1,-8.234975281E0,4.439929375E0,-5.811906457E-1,7.103407383E-1,-1.285852939E-1
4.443699375E0,-3.633094940E0,-2.231454666E1,1.166075134E0,4.449981375E0,5.299754739E-1,4.251790941E-1,-5.136411190E-1
4.453751375E0,-8.869056702E-1,-1.133053802E1,1.023751099E1,4.460033375E0,1.452537656E0,5.366135240E-1,-6.061237454E-1
4.463803375E0,-1.720222778E0,-3.372037811E0,1.159623550E1,4.470085375E0,1.871080279E0,9.163483381E-1,-4.564913809E-1
4.473855375E0,-4.246669006E0,-1.626218262E0,6.838678894E0,4.480137375E0,1.885982633E0,1.483905792E0,-1.755503714E-1
4.483907375E0,-5.321733398E0,-1.324445801E0,2.533481598E0,4.490189375E0,1.642878413E0,2.115798473E0,2.242793292E-1
4.493959375E0,-5.756878510E0,-1.409468994E0,-2.363135834E0,4.500241375E0,1.850065827E0,2.872968435E0,6.361825466E-1
4.504011375E0,-4.433480530E0,-3.131637726E0,7.578739929E-1,4.510293375E0,2.337921858E0,3.603938818E0,1.107143402E0
4.514063375E0,-3.597768402E0,-6.294859772E0,6.370751953E0,4.520345375E0,2.522918940E0,3.735305071E0,1.529495358E0
4.524115375E0,-3.186872864E0,-9.024882660E0,6.960675201E0,4.530397375E0,2.249202251E0,3.422008514E0,1.819704890E0
4.534167375E0,-2.376308441E0,-1.107816284E1,4.222120056E0,4.540449375E0,1.777111292E0,2.761473179E0,1.837880254E0
4.544219375E0,-5.734574890E-1,-1.253343658E1,9.315129089E-1,4.550501375E0,1.451403499E0,1.853050351E0,1.640101194E0
4.554271375E0,1.521436157E0,-1.343950241E1,-8.499325562E-1,4.560553375E0,1.406086206E0,9.850585461E-1,1.349088550E0
4.564323375E0,2.974165192E0,-1.336031708E1,-5.200186157E-1,4.570605375E0,1.555030584E0,3.461046517E-1,1.119252682E0
4.574375375E0,3.260070648E0,-1.260408966E1,4.233197021E-1,4.580657375E0,1.789023995E0,-1.861415803E-4,8.359584808E-1
4.584427375E0,3.612288208E0,-1.229094086E1,7.497908020E-1,4.590709375E0,1.923227787E0,-1.110463440E-1,4.607558548E-1
4.594479375E0,4.622088318E0,-1.175116333E1,3.580554199E-1,4.600761375E0,1.878822207E0,4.000168145E-1,1.850933135E-1
4.604531375E0,4.132755890E0,-1.091664871E1,-6.375242615E-1,4.610813375E0,1.815881848E0,1.163720846E0,3.865006939E-2
4.614583375E0,2.105970612E0,-9.751621399E0,-1.006506958E0,4.620865375E0,1.768436551E0,1.527510762E0,-3.068009578E-2
4.624635375E0,4.754113770E-1,-8.719367981E0,-1.129401398E0,4.630917375E0,1.700778365E0,1.399216652E0,-6.860191375E-2
4.634687375E0,-6.917115784E-1,-8.126450958E0,-1.485061798E0,4.640969375E0,1.660977602E0,1.031924605E0,-2.606064081E-3
4.644739375E0,-1.768572235E0,-7.681875458E0,-1.697919159E0,4.651021375E0,1.644236922E0,7.176801562E-1,1.758225411E-1
4.654791375E0,-2.203268280E0,-7.376959534E0,-1.851649475E0,4.661073375E0,1.621594906E0,6.139592528E-1,3.318395019E-1
4.664843375E0,-1.593885498E0,-7.376211090E0,-1.793719940E0,4.671125375E0,1.531375766E0,7.532074451E-1,4.281359613E-1
4.674895375E0,-6.661148071E-1,-7.625293121E0,-1.487007751E0,4.681177375E0,1.462328553E0,8.640958071E-1,4.625109732E-1
4.684947375E0,2.460882568E-1,-7.736062775E0,-6.968009949E-1,4.691229375E0,1.438002706E0,8.344673514E-1,4.779639542E-1
4.694999375E0,8.568182373E-1,-7.789351959E0,1.131646729E-1,4.701281375E0,1.438228250E0,7.505661249E-1,5.264047384E-1
4.705051375E0,1.037342834E0,-8.124954071E0,5.625302124E-1,4.711333375E0,1.451830626E0,7.444618940E-1,6.040710211E-1
4.715103375E0,1.100960541E0,-8.458310852E0,7.396119690E-1,4.721385375E0,1.410225749E0,9.319635034E-1,6.744968295E-1
4.725155375E0,9.987231445E-1,-8.813222809E0,4.975653076E-1,4.731437375E0,1.332563519E0,1.149429321E0,7.230198979E-1
4.735207375E0,6.547384644E-1,-8.902886353E0,2.639012146E-1,4.741489375E0,1.220203400E0,1.269776821E0,7.757011056E-1
4.745259375E0,6.496490479E-2,-8.759035492E0,1.845661926E-1,4.751541375E0,1.122234702E0,1.248510361E0,8.659367561E-1
4.755311375E0,-6.277944946E-1,-8.502618713E0,-4.116439819E-2,4.761593375E0,1.174409628E0,1.032787085E0,9.529743791E-1
4.765363375E0,-8.916957092E-1,-8.392597504E0,1.254391479E-1,4.771645375E0,1.323821545E0,6.189333200E-1,1.003792286E0
4.775415375E0,-1.044827271E0,-8.703051910E0,2.489323425E-1,4.781697375E0,1.408602715E0,1.639411002E-1,1.000133157E0
4.785467375E0,-1.119971008E0,-9.226064301E0,-2.574645996E-1,4.791749375E0,1.389367223E0,-1.873042732E-1,9.739435315E-1
4.795519375E0,-9.976753235E-1,-9.818831635E0,-8.337661743E-1,4.801801375E0,1.292612791E0,-2.830095589E-1,8.900622129E-1
4.805571375E0,-3.436853027E-1,-1.050410660E1,-9.352551270E-1,4.811853375E0,1.188593268E0,-1.348121166E-1,7.964182496E-1
4.815623375E0,8.093669128E-1,-1.119432129E1,-7.696994019E-1,4.821905375E0,1.086707115E0,2.081731707E-1,6.643185616E-1
4.825675375E0,2.259401550E0,-1.152648056E1,-7.902067566E-1,4.831957375E0,9.704235196E-1,6.249834895E-1,4.766514301E-1
4.835727375E0,3.596271515E0,-1.134670441E1,-1.094823303E0,4.842009375E0,8.793116808E-1,1.070662856E0,3.058275580E-1
4.845779375E0,3.988455963E0,-1.093161758E1,-1.230740662E0,4.852061375E0,7.677153945E-1,1.409364700E0,1.112559512E-1
4.855831375E0,3.960763550E0,-1.049497559E1,-1.340462494E0,4.862113375E0,6.024529338E-1,1.499834299E0,-7.661110908E-2
4.865883375E0,3.521127777E0,-1.011626312E1,-1.484762421E0,4.872165375E0,4.275548756E-1,1.326257706E0,-1.424313933E-1
4.875935375E0,2.078427887E0,-9.999954987E0,-1.298250275E0,4.882217375E0,2.289690524E-1,9.897800088E-1,-1.137307510E-1
4.885987375E0,1.037342834E-1,-1.030906219E1,-1.198108521E0,4.892269375E0,5.988334864E-2,7.347207665E-1,-2.977459878E-2
4.896039375E0,-1.246158600E0,-1.036489609E1,-1.007405090E0,4.902321375E0,-5.718893930E-2,6.003523469E-1,9.943765402E-2
4.906092375E0,-1.786534882E0,-1.024529480E1,-6.553372192E-1,4.912374375E0,-1.705897897E-1,4.586642385E-1,2.310646623E-1
4.916144375E0,-1.602417755E0,-1.044961990E1,-6.724017334E-1,4.922426375E0,-2.779945135E-1,2.718144655E-1,2.996501327E-1
4.926196375E0,-7.485932922E-1,-1.096320190E1,-8.119116211E-1,4.932478375E0,-3.373934031E-1,1.370174885E-1,3.271595240E-1
4.936248375E0,5.158273315E-1,-1.164997375E1,-7.033872986E-1,4.942530375E0,-3.372064233E-1,1.096440852E-1,3.162516952E-1
4.946300375E0,1.929337921E0,-1.224902802E1,-4.272116089E-1,4.952582375E0,-3.674271703E-1,1.632995903E-1,2.651887834E-1
4.956352375E0,3.136427765E0,-1.270932083E1,-4.375401306E-1,4.962634375E0,-4.921973944E-1,1.888146102E-1,1.691225171E-1
4.966404375E0,3.961212616E0,-1.309446991E1,-7.370672607E-1,4.972686375E0,-6.947448850E-1,1.252444237E-1,1.303862967E-2
4.976456375E0,4.405788116E0,-1.366508331E1,-8.427474976E-1,4.982738375E0,-9.417915940E-1,2.487513795E-2,-2.049877793E-1
4.986508375E0,4.540657654E0,-1.414453629E1,-5.769003296E-1,4.992790375E0,-1.191459537E0,-1.257676333E-1,-4.643245339E-1
4.996560375E0,4.429438934E0,-1.471993973E1,-7.289840698E-2,5.002842375E0,-1.423792720E0,-4.809935391E-1,-7.864580750E-1
5.006612375E0,4.611909485E0,-1.557630890E1,3.977229309E-1,5.012894375E0,-1.582760811E0,-1.019875646E0,-1.202224731E0
5.016664375E0,5.025798798E0,-1.636067780E1,6.503974915E-1,5.022946375E0,-1.630465508E0,-1.501264572E0,-1.614942074E0
5.026716375E0,4.388124847E0,-1.639405838E1,7.776329041E-1,5.032998375E0,-1.789256454E0,-1.668872476E0,-1.832795858E0
5.036768375E0,2.026036835E0,-1.530103134E1,-2.558180237E-1,5.043050375E0,-2.294501543E0,-1.599480510E0,-1.908792257E0
5.046820375E0,-1.919009399E-1,-1.410097687E1,-2.691253510E0,5.053102375E0,-2.939558029E0,-1.464223862E0,-1.854915738E0
5.056872375E0,-2.043550415E0,-1.293819489E1,-4.510270844E0,5.063154375E0,-3.358761311E0,-1.420929909E0,-1.732704043E0
5.066924375E0,-3.617826691E0,-1.210742249E1,-4.028572540E0,5.073206250E0,-3.309245110E0,-1.569698095E0,-1.497907519E0
5.076976250E0,-5.356161804E0,-1.203976318E1,-4.017645264E-1,5.083258250E0,-2.968759775E0,-1.786579132E0,-1.083403945E0
5.087028250E0,-7.793393555E0,-1.265962418E1,3.926185455E0,5.093310250E0,-2.649996519E0,-1.579514146E0,-8.174266219E-1
5.097080250E0,-8.498876495E0,-1.404170013E1,6.588998108E0,5.103362250E0,-2.524811745E0,-8.471280336E-1,-6.344448328E-1
5.107132250E0,-8.277786255E0,-1.456456284E1,7.015910339E0,5.113414250E0,-2.610677242E0,-1.120894961E-2,-5.067771077E-1
5.117184250E0,-7.825876007E0,-1.408017014E1,4.671186218E0,5.123466250E0,-2.731296301E0,4.844157696E-1,-3.799847066E-1
5.127236250E0,-7.608527985E0,-1.318278625E1,1.064286804E0,5.133518250E0,-2.610071182E0,5.654674768E-1,-3.286791742E-1
5.137288250E0,-7.287595367E0,-1.227312790E1,-1.854194183E0,5.143570250E0,-2.299008131E0,4.959173501E-1,-2.894105613E-1
5.147340250E0,-6.223458252E0,-1.143232635E1,-3.174748077E0,5.153622250E0,-2.117522955E0,2.388826162E-1,-2.826352119E-1
5.157392250E0,-4.248465271E0,-1.072729248E1,-4.143383789E0,5.163674250E0,-2.220476627E0,-2.600726783E-1,-2.525787652E-1
5.167444250E0,-2.160756683E0,-1.042626846E1,-4.849615173E0,5.173726250E0,-2.484596014E0,-7.920926213E-1,-1.675791740E-1
5.177496250E0,-1.603914642E0,-9.952803040E0,-4.024830322E0,5.183778250E0,-2.552859306E0,-7.422173023E-1,-1.940781176E-1
5.187548250E0,-8.189469910E-1,-9.283844147E0,-1.580263824E0,5.193830250E0,-2.478318214E0,-2.796531022E-1,-2.966183722E-1
5.197600250E0,-1.431024170E-1,-8.310119019E0,1.721420288E-2,5.203882250E0,-2.438153505E0,3.343322873E-2,-4.314124882E-1
5.207652250E0,9.936337280E-1,-8.300239563E0,-5.020559692E-1,5.213934250E0,-2.347885132E0,-5.746365711E-2,-5.795060992E-1
5.217704250E0,1.885628815E0,-8.708141327E0,-3.968247986E-1,5.223986250E0,-2.204415321E0,-2.580481172E-1,-7.741466761E-1
5.227756250E0,2.632874908E0,-8.936117249E0,3.188369751E-2,5.234038250E0,-1.991217613E0,-5.031207204E-1,-9.393867254E-1
5.237808250E0,2.241738281E0,-8.716823273E0,3.144960022E-1,5.244090250E0,-1.758898616E0,-7.599530816E-1,-1.077097535E0
5.247860250E0,1.507814484E0,-8.206085358E0,6.777905273E-1,5.254142250E0,-1.540727139E0,-9.923959374E-1,-1.188707113E0
5.257912250E0,6.962022400E-1,-7.552544403E0,6.023474121E-1,5.264194250E0,-1.368482113E0,-1.085087061E0,-1.263923287E0
5.267964250E0,-1.957928467E-1,-6.638994141E0,4.619393921E-1,5.274246250E0,-1.203787446E0,-1.198747873E0,-1.297939301E0
5.278016250E0,-7.741900635E-1,-5.767506409E0,4.903802490E-1,5.284298250E0,-1.024368644E0,-1.405722499E0,-1.286864281E0
5.288068250E0,-9.587562561E-1,-5.207820282E0,5.632786560E-1,5.294350250E0,-8.550622463E-1,-1.662983060E0,-1.214789867E0
5.298120250E0,-1.146465912E0,-4.693789215E0,5.096900940E-1,5.304402250E0,-7.316967249E-1,-1.929974318E0,-1.071571827E0
5.308172250E0,-1.503772888E0,-4.276457062E0,3.932322693E-1,5.314454250E0,-6.492370367E-1,-2.111140728E0,-9.172728062E-1
5.318224250E0,-1.729054413E0,-3.855382690E0,-2.095642090E-2,5.324506250E0,-5.771914124E-1,-2.199259758E0,-7.729791999E-1
5.328276250E0,-1.802252197E0,-3.412902832E0,-7.126679993E-1,5.334558250E0,-4.509221613E-1,-2.142011881E0,-6.380836964E-1
5.338328250E0,-1.680405579E0,-3.122357025E0,-1.451381836E0,5.344610250E0,-2.679204345E-1,-1.988048673E0,-4.848938286E-1
5.348380250E0,-1.441502380E0,-3.058889008E0,-2.298320618E0,5.354662250E0,-8.223686367E-2,-1.808940172E0,-3.135303259E-1
5.358432250E0,-1.160536652E0,-3.186274109E0,-3.097059631E0,5.364714250E0,1.050931960E-1,-1.637379289E0,-1.601592153E-1
5.368484250E0,-8.765771484E-1,-3.450774078E0,-3.644171906E0,5.374766250E0,2.863282561E-1,-1.471872449E0,-5.449510366E-2
5.378536250E0,-4.870870972E-1,-3.689078522E0,-3.778891754E0,5.384818250E0,4.504418969E-1,-1.384793282E0,-1.042524911E-2
5.388588250E0,5.628295898E-2,-3.912713470E0,-3.612138519E0,5.394870250E0,7.063935399E-1,-1.182173133E0,-5.869291350E-2
5.398640250E0,5.310955811E-1,-4.312382355E0,-3.615880737E0,5.404922250E0,9.922012091E-1,-9.064883590E-1,-1.718827635E-1
5.408693250E0,8.843609619E-1,-4.477638702E0,-4.325405273E0,5.414974250E0,1.168136001E0,-6.795710921E-1,-2.515714765E-1
5.418744250E0,1.007704468E0,-5.173242188E0,-5.702990570E0,5.425027250E0,1.237791538E0,-4.747740626E-1,-3.017091751E-1
5.428797250E0,8.101153564E-1,-6.142027588E0,-7.333998871E0,5.435079250E0,1.222408891E0,-3.640299737E-1,-2.713928223E-1
5.438849250E0,1.953437805E-1,-7.146438904E0,-8.806037750E0,5.445131250E0,1.138220429E0,-3.843350112E-1,-1.408294588E-1
5.448901250E0,-7.039860535E-1,-8.277486877E0,-9.656419373E0,5.455183250E0,9.839653373E-1,-3.983499110E-1,1.151826233E-2
5.458953250E0,-1.241069183E0,-9.569450226E0,-9.851014709E0,5.465235250E0,7.695952058E-1,-3.514418900E-1,7.992396504E-2
5.469005250E0,-9.994715881E-1,-1.099224152E1,-9.635163574E0,5.475287250E0,5.219854116E-1,-2.917468846E-1,1.432417985E-2
5.479057250E0,3.847000122E-2,-1.241548187E1,-9.176217957E0,5.485339250E0,2.760885358E-1,-3.258517087E-1,-1.516604424E-1
5.489109250E0,1.310973816E0,-1.343291611E1,-9.029822388E0,5.495391250E0,4.878214002E-2,-4.744579792E-1,-3.655690253E-1
5.499161250E0,2.058369598E0,-1.364457596E1,-9.348060608E0,5.505443250E0,-1.175398156E-1,-6.966150999E-1,-5.365582705E-1
5.509213250E0,1.986668701E0,-1.289149200E1,-9.661658478E0,5.515495250E0,-1.777786613E-1,-9.337259531E-1,-6.290578246E-1
5.519265250E0,1.498683472E0,-1.137679184E1,-9.315428467E0,5.525547250E0,-8.660624176E-2,-1.132553935E0,-6.450551152E-1
5.529317250E0,1.195264435E0,-9.485774231E0,-8.225844269E0,5.535599250E0,8.362514526E-2,-1.334571123E0,-6.111091375E-1
5.539369250E0,8.273295593E-1,-7.500153351E0,-7.109316101E0,5.545651250E0,1.725306213E-1,-1.392593741E0,-5.275386572E-1
5.549421250E0,4.954696655E-2,-5.581742706E0,-6.846163330E0,5.555703250E0,1.748052239E-1,-1.342822194E0,-4.456187189E-1
5.559473250E0,-8.821156311E-1,-4.590953064E0,-6.865473175E0,5.565755250E0,3.745253384E-1,-1.125387311E0,-3.833868802E-1
5.569525250E0,-1.854942627E0,-5.293891296E0,-4.839885406E0,5.575807250E0,9.265008569E-1,-6.437434554E-1,-2.415756583E-1
5.579577250E0,-2.946772156E0,-7.017257538E0,-9.060658264E-1,5.585859250E0,1.592880368E0,2.068892419E-1,2.073328756E-2
5.589629250E0,-4.966671753E0,-9.257947998E0,2.205214233E0,5.595911250E0,1.882463217E0,1.385380149E0,3.727419376E-1
5.599681250E0,-7.847131805E0,-1.306977127E1,1.906734924E0,5.605963250E0,1.046963215E0,2.525932789E0,7.374889851E-1
5.609733250E0,-9.965227203E0,-1.989273285E1,-4.398902435E0,5.616015250E0,-4.659569860E-1,2.754765034E0,8.392508030E-1
5.619785250E0,-1.043884232E1,-2.953687775E1,-1.163515457E1,5.626067250E0,-1.163353682E0,1.526959062E0,1.575955451E-1
5.629837250E0,-6.271358643E0,-3.376902695E1,-7.416327667E0,5.636119250E0,-1.934977770E-1,7.775585055E-1,-5.099050403E-1
5.639889250E0,6.821315002E-1,-2.140758270E1,7.223977661E0,5.646171250E0,1.170303226E0,6.995661259E-1,-8.080607653E-1
5.649941250E0,1.293160858E0,-6.607260132E0,1.590278000E1,5.656223250E0,1.773620725E0,9.085108638E-1,-8.493708968E-1
5.659993250E0,-1.567091217E0,-1.807640991E0,9.664053497E0,5.666275250E0,1.985717177E0,1.512933373E0,-7.746778131E-1
5.670045250E0,-3.265309753E0,-4.456233215E-1,4.958139496E0,5.676327250E0,1.783921480E0,2.384633780E0,-3.865865469E-1
5.680097250E0,-4.969366150E0,-3.255729675E-1,-3.532653809E-1,5.686379250E0,1.679325819E0,3.455520868E0,2.127695084E-1
5.690149250E0,-5.766159210E0,-1.329684906E0,-2.506837006E0,5.696431250E0,2.052146912E0,4.454512596E0,8.079530001E-1
5.700201250E0,-4.929848328E0,-3.802692261E0,2.370021515E0,5.706483250E0,2.523831606E0,4.729092598E0,1.386445045E0
5.710253250E0,-4.235891418E0,-6.838229828E0,6.706054688E0,5.716535250E0,2.617252350E0,4.361726284E0,1.860757470E0
5.720305250E0,-3.981270905E0,-9.341474304E0,6.346652069E0,5.726587250E0,2.311549187E0,3.619971037E0,2.016638994E0
5.730357250E0,-2.291434937E0,-1.104358475E1,3.499572601E0,5.736639250E0,1.929534554E0,2.652562857E0,1.907621503E0
5.740409250E0,4.029620361E-1,-1.247595612E1,1.080153809E0,5.746691250E0,1.685439110E0,1.699629784E0,1.693686247E0
5.750461250E0,1.989063721E0,-1.368424347E1,4.890330505E-1,5.756743250E0,1.569253922E0,7.780285478E-1,1.493855357E0
5.760513250E0,2.749332733E0,-1.392359573E1,5.478607178E-1,5.766795250E0,1.665869236E0,-4.776198417E-2,1.279976606E0
5.770565250E0,3.559897156E0,-1.396371231E1,9.744735718E-1,5.776847250E0,1.850279093E0,-5.080220103E-1,9.292532206E-1
5.780617250E0,4.716392212E0,-1.389575363E1,1.393601990E0,5.786899250E0,1.930349231E0,-2.435878068E-1,5.315831900E-1
5.790669250E0,5.231171722E0,-1.323278229E1,8.208929443E-1,5.796951250E0,1.895711660E0,6.260309219E-1,1.861259788E-1
5.800721250E0,4.776267700E0,-1.112456635E1,-3.546125793E-1,5.807003250E0,1.833234668E0,1.413145900E0,1.143503636E-1
5.810773250E0,2.771486664E0,-8.623866577E0,-1.004860382E0,5.817055250E0,1.823977470E0,1.819305658E0,5.058524013E-2
5.820825250E0,8.565188599E-1,-7.004084930E0,-5.194198608E-1,5.827107250E0,1.762109756E0,1.784912586E0,4.282034934E-2
5.830877250E0,-6.099815369E-1,-6.175707550E0,-8.325686646E-1,5.837159250E0,1.709331274E0,1.444115877E0,1.707178652E-1
5.840929250E0,-2.187550964E0,-5.894592133E0,-1.353186035E0,5.847211250E0,1.594419003E0,1.134476304E0,3.610526621E-1
5.850981250E0,-2.816093903E0,-6.007158051E0,-1.751358032E0,5.857263250E0,1.419385433E0,1.051121593E0,4.665111899E-1
5.861033250E0,-2.336341553E0,-6.588998108E0,-1.882036285E0,5.867315250E0,1.317153215E0,1.020794749E0,4.607383907E-1
5.871085250E0,-1.119971008E0,-7.102729797E0,-5.620811462E-1,5.877367250E0,1.234180570E0,1.196901083E0,5.212731361E-1
5.881137250E0,-8.580157471E-1,-7.706424408E0,4.739144897E-1,5.887419250E0,1.295806408E0,1.491774082E0,6.001745462E-1
5.891189250E0,-8.283773804E-1,-8.528065796E0,1.389111328E0,5.897471250E0,1.459985733E0,1.696559787E0,6.835885048E-1
5.901241250E0,-6.821315002E-1,-9.072333984E0,1.907483368E0,5.907523250E0,1.569852591E0,1.762367010E0,7.705768943E-1
5.911293250E0,-6.878196716E-1,-9.343719635E0,1.611099701E0,5.917576250E0,1.525097609E0,1.760008454E0,8.975471258E-1
5.921345250E0,-7.328759766E-1,-9.391470337E0,5.715115356E-1,5.927628250E0,1.412188053E0,1.588337183E0,1.026940584E0
5.931398250E0,-6.331832886E-1,-9.485025787E0,-4.939727783E-2,5.937680250E0,1.345802426E0,1.159542680E0,1.100825906E0
5.941450250E0,-3.921844482E-1,-9.644743652E0,-4.236190796E-2,5.947732250E0,1.291979909E0,6.419060230E-1,1.115205646E0
5.951502250E0,-5.972579956E-2,-9.827513580E0,-4.617897034E-1,5.957784250E0,1.238810420E0,2.835571766E-1,1.116553783E0
5.961554250E0,2.085163879E-1,-9.909542999E0,-1.185384979E0,5.967836250E0,1.197884798E0,1.341872215E-1,1.078142285E0
5.971606250E0,8.261320496E-1,-1.013033386E1,-1.550326080E0,5.977888250E0,1.107409477E0,1.993971169E-1,9.649680853E-1
5.981658250E0,2.077529755E0,-1.043045975E1,-1.549128571E0,5.987940250E0,9.578408599E-1,4.630495012E-1,8.096579909E-1
5.991710250E0,3.476221161E0,-1.050964508E1,-1.376986542E0,5.997992250E0,7.767065167E-1,8.243597150E-1,6.044414639E-1
6.001762250E0,4.753664703E0,-1.060200302E1,-1.190175018E0,6.008044250E0,5.849253535E-1,1.175743818E0,3.776877224E-1
6.011814250E0,5.530249786E0,-1.058299255E1,-9.604028320E-1,6.018096250E0,4.325483143E-1,1.365978718E0,1.595029086E-1
6.021866250E0,5.482050018E0,-1.044617706E1,-5.502557373E-1,6.028148250E0,3.588344157E-1,1.274959326E0,-2.201419137E-2
6.031918250E0,4.779111786E0,-1.030038025E1,-2.170486450E-2,6.038200250E0,3.963697851E-1,1.042814016E0,-1.270402074E-1
6.041970250E0,3.198249207E0,-1.040486298E1,5.215155029E-1,6.048252250E0,4.161180854E-1,7.579549551E-1,-1.770395786E-1
6.052022250E0,1.413360901E0,-1.088476501E1,2.029779053E-1,6.058304250E0,2.800537050E-1,5.734487772E-1,-1.454182565E-1
6.062074250E0,-1.787283325E-1,-1.129042145E1,-1.370849304E0,6.068356250E0,3.958482295E-2,4.806996584E-1,-7.364037633E-2
6.072127000E0,-1.122366028E0,-1.152842651E1,-2.768043823E0,6.078409000E0,-1.582566053E-1,4.354767799E-1,5.097399279E-2
6.082179000E0,-1.578617249E0,-1.171673492E1,-2.667602692E0,6.088461000E0,-2.583138645E-1,3.851127923E-1,1.384819001E-1
6.092231000E0,-1.360520782E0,-1.193812454E1,-2.003583527E0,6.098513000E0,-2.970449924E-1,2.969104946E-1,1.716382504E-1
6.102283000E0,-5.263055420E-1,-1.216430420E1,-1.456920319E0,6.108565000E0,-3.616055548E-1,1.692941338E-1,1.850226671E-1
6.112335000E0,4.620890808E-1,-1.231743576E1,-1.384171600E0,6.118617000E0,-4.874066412E-1,9.773472697E-2,1.874690503E-1
6.122387000E0,1.551673279E0,-1.227432541E1,-1.451381836E0,6.128669000E0,-6.589134932E-1,1.293970644E-1,1.362855434E-1
6.132439000E0,2.801723785E0,-1.207763443E1,-1.464704132E0,6.138721000E0,-8.389315009E-1,2.411763221E-1,9.132644162E-3
6.142491000E0,3.767515411E0,-1.217343521E1,-1.470092926E0,6.148773000E0,-1.020853519E0,3.087177873E-1,-2.293833941E-1
6.152543000E0,4.043391724E0,-1.288999512E1,-1.275198212E0,6.158825000E0,-1.249499440E0,2.186949402E-1,-4.822092652E-1
6.162595000E0,3.615132294E0,-1.361957794E1,-1.142424316E0,6.168877000E0,-1.585841894E0,2.252864838E-2,-7.301357985E-1
6.172647000E0,3.209326172E0,-1.394784531E1,-1.292412415E0,6.178929000E0,-1.935212612E0,-3.220135570E-1,-1.005480528E0
6.182699000E0,3.257525940E0,-1.411310165E1,-1.072519684E0,6.188981000E0,-2.237985134E0,-8.846651316E-1,-1.311928988E0
6.192751000E0,3.461252289E0,-1.409888123E1,-6.059399414E-1,6.199033000E0,-2.608595133E0,-1.378402829E0,-1.594159126E0
6.202803000E0,3.218157806E0,-1.418270691E1,-1.131796417E0,6.209085000E0,-3.079371452E0,-1.547308326E0,-1.694877386E0
6.212855000E0,1.435065765E0,-1.432356400E1,-2.436034241E0,6.219137000E0,-3.573881388E0,-1.532902241E0,-1.604624152E0
6.222907000E0,-1.269959106E0,-1.448777252E1,-3.622017975E0,6.229189000E0,-3.582567453E0,-1.786327600E0,-1.369781852E0
6.232959000E0,-3.839515686E0,-1.428404617E1,-9.455836487E-1,6.239241000E0,-3.074271441E0,-2.124596834E0,-1.071524143E0
6.243011000E0,-6.042334900E0,-1.362885864E1,4.827760620E0,6.249293000E0,-2.568350315E0,-2.098083258E0,-9.149234891E-1
6.253063000E0,-6.301296387E0,-1.370744522E1,7.746091919E0,6.259345000E0,-2.370615244E0,-1.519212604E0,-9.158335328E-1
6.263115000E0,-5.362448730E0,-1.410950912E1,7.258705444E0,6.269397000E0,-2.426303387E0,-6.333947778E-1,-8.616263866E-1
6.273167000E0,-5.097649384E0,-1.434931046E1,4.584965515E0,6.279449000E0,-2.533362389E0,1.330866665E-1,-6.660813689E-1
6.283219000E0,-6.239474945E0,-1.377989456E1,1.120270386E0,6.289501000E0,-2.468338728E0,5.665413141E-1,-4.774917960E-1
6.293271000E0,-6.988517303E0,-1.299612442E1,-1.863025818E0,6.299553000E0,-2.263158321E0,6.746209264E-1,-4.169821143E-1
6.303323000E0,-6.012995911E0,-1.279434402E1,-3.276536407E0,6.309605000E0,-2.138890266E0,6.532450914E-1,-4.789497256E-1
6.313375000E0,-3.951482849E0,-1.254002289E1,-4.017345886E0,6.319657000E0,-2.151270151E0,3.626401722E-1,-5.758270621E-1
6.323427000E0,-1.736239471E0,-1.245485001E1,-4.128265228E0,6.329709000E0,-2.299344778E0,-1.352919638E-1,-6.241704226E-1
6.333479000E0,-8.032296753E-1,-1.230171844E1,-3.415597229E0,6.339761000E0,-2.341675282E0,-6.256694198E-1,-6.385210752E-1
6.343531000E0,4.939727783E-3,-1.122560623E1,-1.314117279E0,6.349813000E0,-2.265765190E0,-8.357003927E-1,-7.308727503E-1
6.353583000E0,9.876461792E-1,-9.878108368E0,6.465055847E-1,6.359865000E0,-2.119686127E0,-6.606622934E-1,-8.120240569E-1
6.363635000E0,1.348096619E0,-8.845705261E0,1.289867706E0,6.369917000E0,-1.994600058E0,-4.122541845E-1,-8.120727539E-1
6.373687000E0,4.661306763E-1,-8.243357849E0,7.409591675E-1,6.379969000E0,-1.821857333E0,-1.562727541E-1,-7.955009341E-1
6.383739000E0,-4.454736328E-1,-7.677534485E0,7.177574158E-1,6.390021000E0,-1.673460841E0,-2.782591283E-1,-8.447210789E-1
6.393791000E0,-2.158511353E-1,-7.112309875E0,8.388555908E-1,6.400073000E0,-1.549301624E0,-6.437127590E-1,-9.015329480E-1
6.403843000E0,-1.881587219E-1,-6.714586945E0,6.421646118E-1,6.410125000E0,-1.360720515E0,-1.094736934E0,-9.819857478E-1
6.413895000E0,-2.110610962E-1,-6.439309387E0,1.029858398E0,6.420178000E0,-1.174751639E0,-1.436307073E0,-1.066462755E0
6.423948000E0,-2.993774414E-4,-6.205495605E0,7.900570679E-1,6.430230000E0,-9.991798401E-1,-1.615888953E0,-1.175585985E0
6.434000000E0,3.480262756E-1,-6.057004395E0,3.870950317E-1,6.440282000E0,-7.984418869E-1,-1.770684123E0,-1.245767117E0
6.444052000E0,1.327738953E-1,-5.704786835E0,3.393443298E-1,6.450334000E0,-6.626565456E-1,-1.946088433E0,-1.300664067E0
6.454104000E0,-2.890489197E-1,-4.998106384E0,6.129753113E-1,6.460386000E0,-5.298444033E-1,-2.124732494E0,-1.299497128E0
6.464156000E0,-8.831634521E-1,-4.515659637E0,1.145118713E0,6.470438000E0,-4.005765319E-1,-2.319795370E0,-1.236778855E0
6.474208000E0,-1.753753052E0,-4.214186554E0,1.598825226E0,6.480490000E0,-3.020904362E-1,-2.544918537E0,-1.140599251E0
6.484260000E0,-2.672692108E0,-3.786825256E0,1.757195892E0,6.490542000E0,-2.174590528E-1,-2.769955873E0,-9.997646809E-1
6.494312000E0,-3.217259674E0,-3.516487427E0,1.624871063E0,6.500594000E0,-1.148607805E-1,-2.909228325E0,-8.194537759E-1
6.504364000E0,-3.574267273E0,-3.389401703E0,1.431024170E0,6.510646000E0,-2.564760391E-3,-2.921241760E0,-5.872821808E-1
6.514416000E0,-3.768712921E0,-3.377576294E0,9.743238831E-1,6.520698000E0,2.336850464E-1,-2.645712376E0,-3.778626323E-1
6.524468000E0,-3.624263306E0,-3.573369141E0,1.344204712E-1,6.530750000E0,6.085085273E-1,-2.155110836E0,-1.979856342E-1
6.534520000E0,-3.142115936E0,-3.683390350E0,-9.976753235E-1,6.540802000E0,9.750418067E-1,-1.534608126E0,-3.076229431E-2
6.544572000E0,-2.386337585E0,-3.926933899E0,-2.441423035E0,6.550854000E0,1.272614360E0,-8.415058255E-1,9.799191356E-2
6.554624000E0,-1.493594055E0,-4.455784149E0,-3.882775726E0,6.560906000E0,1.439815402E0,-2.455401570E-1,1.831821799E-1
6.564676000E0,-8.021818542E-1,-5.522465973E0,-5.352419586E0,6.570958000E0,1.450499415E0,5.574982986E-2,2.372729778E-1
6.574728000E0,-4.004173279E-1,-7.016359406E0,-6.656058655E0,6.581010000E0,1.382104158E0,8.282458782E-2,2.875649035E-1
6.584780000E0,-3.733236694E-1,-8.348139954E0,-7.338190155E0,6.591062000E0,1.315148354E0,-8.397881687E-2,3.379326165E-1
6.594832000E0,-6.647676086E-1,-9.249415741E0,-7.471562805E0,6.601114000E0,1.207252026E0,-3.089093864E-1,3.927697539E-1
6.604884000E0,-1.003812561E0,-9.922116852E0,-7.756270752E0,6.611166000E0,1.019528747E0,-4.995000958E-1,4.167440236E-1
6.614936000E0,-1.059796143E0,-1.081785416E1,-8.527167664E0,6.621218000E0,6.989967823E-1,-7.238836884E-1,3.444940448E-1
6.624988000E0,-3.318598938E-1,-1.229228806E1,-9.858499146E0,6.631270000E0,2.458811849E-1,-1.041961551E0,1.960856467E-1
6.635040000E0,9.602531433E-1,-1.389051453E1,-1.142050095E1,6.641322000E0,-1.954679936E-1,-1.305202723E0,6.950611714E-3
6.645092000E0,1.850601654E0,-1.509041931E1,-1.194456116E1,6.651374000E0,-4.974782765E-1,-1.396388650E0,-1.873902529E-1
6.655144000E0,2.474653931E0,-1.549068695E1,-1.102666992E1,6.661426000E0,-6.776259542E-1,-1.279479623E0,-3.662697375E-1
6.665196000E0,2.975811768E0,-1.493070145E1,-9.618248749E0,6.671478000E0,-7.316201329E-1,-1.001832962E0,-5.518060327E-1
6.675248000E0,3.520229645E0,-1.355596024E1,-8.182284851E0,6.681530000E0,-6.449047327E-1,-7.586527467E-1,-7.348157763E-1
6.685300000E0,3.607198792E0,-1.192076065E1,-6.996600494E0,6.691582000E0,-4.465382397E-1,-6.226123571E-1,-8.976058960E-1
6.695352000E0,3.067121887E0,-1.019784348E1,-6.143674164E0,6.701634000E0,-1.625089049E-1,-5.143079758E-1,-9.934333563E-1
6.705404000E0,1.871707764E0,-8.701704712E0,-5.585484924E0,6.711686000E0,2.243443131E-1,-3.535003066E-1,-9.526900053E-1
6.715456000E0,9.834548950E-2,-8.163424072E0,-4.596341858E0,6.721738000E0,6.950820088E-1,-1.284687817E-1,-7.231907248E-1
6.725508000E0,-2.019151154E0,-8.776100006E0,-2.606529694E0,6.731790000E0,1.024545074E0,3.629210293E-1,-3.345670104E-1
6.735560000E0,-4.570296021E0,-1.044737457E1,-5.125341797E-1,6.741842000E0,8.745382428E-1,1.201463699E0,1.953780092E-2
6.745612000E0,-6.842570801E0,-1.376357849E1,7.274871826E-2,6.751894000E0,2.481182665E-2,2.011468887E0,1.964384019E-1
6.755664000E0,-7.982151031E0,-1.885449188E1,-3.018023987E0,6.761946000E0,-5.312224030E-1,1.956100583E0,1.589964926E-1
6.765716000E0,-7.745343475E0,-2.316582642E1,-4.582271118E0,6.771998000E0,-2.021911293E-1,9.685684443E-1,-1.396715045E-1
6.775768000E0,-6.543043671E0,-2.171249863E1,5.492079163E-1,6.782050000E0,7.221537232E-1,1.715597063E-1,-4.889613092E-1
6.785820000E0,-3.434607697E0,-1.235141510E1,7.018155670E0,6.792102000E0,1.494406581E0,1.112183109E-1,-5.576669574E-1
6.795872000E0,-3.450474701E0,-5.443729706E0,8.363857269E0,6.802154000E0,1.942680955E0,6.245527267E-1,-4.825830758E-1
6.805924000E0,-4.569098511E0,-2.973267059E0,5.109624481E0,6.812206000E0,1.997792959E0,1.438052773E0,-2.024387121E-1
6.815976000E0,-5.062023468E0,-1.750010834E0,1.700613556E0,6.822258000E0,1.869716167E0,2.368235350E0,2.965599000E-1
6.826028000E0,-6.072422333E0,-1.563648376E0,-1.298849030E0,6.832310000E0,2.044294119E0,3.400670290E0,8.983395100E-1
6.836080000E0,-5.765111389E0,-2.575095062E0,1.376986542E0,6.842362000E0,2.373564482E0,4.086402893E0,1.484938860E0
6.846132000E0,-5.529201965E0,-4.893324280E0,5.599555664E0,6.852414000E0,2.450769901E0,4.083618164E0,1.820643902E0
6.856184000E0,-4.445455627E0,-7.171436920E0,5.959407349E0,6.862466000E0,2.254203320E0,3.665313244E0,1.952620029E0
6.866236000E0,-2.705923004E0,-8.870254211E0,4.524491272E0,6.872518000E0,1.804031849E0,2.961755514E0,1.923867941E0
6.876288000E0,-1.066232758E0,-1.048509613E1,2.091001740E0,6.882570000E0,1.382469893E0,2.086857557E0,1.743365526E0
6.886340000E0,7.530839539E-1,-1.184262314E1,1.914518738E-1,6.892622000E0,1.238301039E0,1.207807422E0,1.492519617E0
6.896392000E0,2.174827423E0,-1.235560638E1,4.794529724E-1,6.902674000E0,1.407271981E0,1.645684242E-1,1.184549332E0
6.906444000E0,3.528462524E0,-1.277039383E1,1.442101135E0,6.912726000E0,1.675300002E0,-6.907840967E-1,8.160889149E-1
6.916497000E0,4.517605591E0,-1.341809692E1,1.627864838E0,6.922779000E0,1.726256967E0,-5.975992680E-1,4.076617360E-1
6.926549000E0,5.282065887E0,-1.330133972E1,3.017724609E-1,6.932831000E0,1.644742966E0,3.108829856E-1,1.629428118E-1
6.936601000E0,5.037324829E0,-1.169982010E1,-8.714877319E-1,6.942883000E0,1.681803226E0,1.249335766E0,7.404704392E-2
6.946653000E0,3.435805206E0,-9.786049805E0,-4.361929321E-1,6.952935000E0,1.691549540E0,1.736587048E0,-6.106983125E-2
6.956705000E0,2.093097382E0,-8.741970978E0,-2.107617188E-1,6.962987000E0,1.689163685E0,1.609600902E0,-1.372727156E-1
6.966757000E0,7.596702576E-1,-8.043972473E0,-4.882846069E-1,6.973039000E0,1.719011426E0,1.224264145E0,-8.104259521E-2
6.976809000E0,-7.676037598E-1,-7.586523743E0,-6.054908752E-1,6.983091000E0,1.664329529E0,9.480966926E-1,6.556708366E-2
6.986861000E0,-1.612895966E0,-7.264094238E0,-1.265468445E0,6.993143000E0,1.500046253E0,9.141340852E-1,1.638649553E-1
6.996913000E0,-1.428928528E0,-7.175328827E0,-1.641336823E0,7.003195000E0,1.310384393E0,9.879854321E-1,2.263294011E-1
7.006965000E0,-8.298742676E-1,-7.435936890E0,-1.139280853E0,7.013247000E0,1.203438640E0,1.103013277E0,3.091501892E-1
7.017017000E0,-4.394860840E-1,-7.843688965E0,1.092727661E-1,7.023299000E0,1.225911736E0,1.189147592E0,4.290832281E-1
7.027069000E0,-3.537144470E-1,-8.213569794E0,1.298399963E0,7.033351000E0,1.245919108E0,1.243159890E0,5.477643609E-1
7.037121000E0,-4.688250732E-1,-8.431366882E0,1.440454559E0,7.043403000E0,1.224066019E0,1.241621852E0,6.745113730E-1
7.047173000E0,-8.888516235E-1,-8.508755951E0,6.107299805E-1,7.053455000E0,1.152080536E0,1.245056629E0,8.181769848E-1
7.057225000E0,-1.352437592E0,-8.412206726E0,-4.881349182E-1,7.063507000E0,1.100906491E0,1.151188493E0,9.371678233E-1
7.067277000E0,-1.468446350E0,-8.628806305E0,-1.120270386E0,7.073559000E0,1.095480800E0,8.298043013E-1,1.035516262E0
7.077328750E0,-1.399589539E0,-8.927734680E0,-1.135838013E0,7.083610750E0,1.114746690E0,3.968267739E-1,1.079511523E0
7.087380750E0,-1.105750580E0,-9.015152893E0,-9.533674622E-1,7.093662750E0,1.108984470E0,2.330606245E-2,1.054785371E0
7.097432750E0,-6.221063232E-1,-9.086554413E0,-9.054670715E-1,7.103714750E0,1.088299990E0,-1.924842894E-1,1.039239883E0
7.107484750E0,-4.445755005E-2,-9.513766022E0,-6.113287354E-1,7.113766750E0,1.078205943E0,-1.407808661E-1,1.034401774E0
7.117536750E0,7.566764832E-1,-1.013856674E1,1.345701599E-1,7.123818750E0,1.090568423E0,1.281960011E-1,9.900108576E-1
7.127588750E0,1.992506561E0,-1.062086380E1,1.065634003E0,7.133870750E0,1.066922307E0,4.957471192E-1,9.010347128E-1
7.137640750E0,3.167563019E0,-1.074151291E1,1.505868530E0,7.143922750E0,1.014067888E0,7.902061343E-1,7.625812292E-1
7.147692750E0,3.725452881E0,-1.056038956E1,1.179996185E0,7.153974750E0,9.703313708E-1,8.964473009E-1,5.594912767E-1
7.157744750E0,4.010759583E0,-1.033944901E1,2.832110596E-1,7.164026750E0,9.263857603E-1,8.404037356E-1,3.179220557E-1
7.167796750E0,3.935017090E0,-1.024933640E1,-1.096469879E0,7.174078750E0,8.223951459E-1,8.591893315E-1,1.185869053E-1
7.177848750E0,3.123554535E0,-1.040411453E1,-2.380948792E0,7.184130750E0,5.702114105E-1,9.814409614E-1,7.157313637E-3
7.187900750E0,1.783391418E0,-1.085183350E1,-3.097957764E0,7.194182750E0,2.707344592E-1,1.038416862E0,-4.159512371E-2
7.197952750E0,5.580395508E-1,-1.101319794E1,-2.867137756E0,7.204234750E0,4.366188124E-2,9.179210067E-1,-4.122015089E-2
7.208004750E0,-5.568420410E-1,-1.079390396E1,-1.663191376E0,7.214286750E0,-5.897920951E-2,7.071149349E-1,4.536766186E-2
7.218056750E0,-1.407073975E0,-1.044138702E1,-2.827619934E-1,7.224338750E0,-1.248684824E-1,5.225541592E-1,1.648554504E-1
7.228108750E0,-1.698517914E0,-1.029304550E1,6.328839111E-1,7.234390750E0,-1.738816053E-1,2.951701581E-1,2.289452553E-1
7.238160750E0,-1.039438477E0,-1.053943314E1,8.610095215E-1,7.244442750E0,-1.718962193E-1,4.212407023E-2,2.619146705E-1
7.248212750E0,-4.460723877E-2,-1.109193420E1,6.610253906E-1,7.254494750E0,-1.583722085E-1,-1.131924167E-1,3.160362244E-1
7.258264750E0,8.080197144E-1,-1.167961212E1,-1.468446350E-1,7.264546750E0,-2.140115052E-1,-8.516078442E-2,3.487246633E-1
7.268316750E0,1.733245697E0,-1.213736023E1,-1.334175568E0,7.274598750E0,-3.691167533E-1,4.046687111E-2,3.388063610E-1
7.278368750E0,2.815644836E0,-1.244901215E1,-2.191891937E0,7.284650750E0,-5.509864092E-1,1.656903028E-1,2.617813647E-1
7.288420750E0,3.823948059E0,-1.249436783E1,-2.313139801E0,7.294702750E0,-7.350790501E-1,2.679111660E-1,7.009077072E-2
7.298472750E0,4.377197571E0,-1.287861877E1,-1.922751617E0,7.304754750E0,-9.154650569E-1,2.715072334E-1,-2.652371526E-1
7.308524750E0,4.222419434E0,-1.373528732E1,-1.264869690E0,7.314806750E0,-1.116869211E0,1.308827251E-1,-5.406379104E-1
7.318576750E0,3.021317139E0,-1.427371765E1,-6.718029785E-1,7.324858750E0,-1.393527150E0,-1.179233566E-1,-8.003142476E-1
7.328628750E0,2.090402985E0,-1.458072922E1,-5.870791626E-1,7.334910750E0,-1.698911309E0,-5.236446261E-1,-1.080141306E0
7.338680750E0,2.430346069E0,-1.489687180E1,-6.462062073E-1,7.344962750E0,-1.937522769E0,-1.034685731E0,-1.352432489E0
7.348732750E0,2.621947632E0,-1.469104980E1,-3.662882996E-1,7.355014750E0,-2.282650709E0,-1.391472936E0,-1.610840917E0
7.358784750E0,2.443668365E0,-1.418330566E1,-8.659492493E-1,7.365066750E0,-2.836631536E0,-1.430382013E0,-1.740887880E0
7.368836750E0,1.382525024E0,-1.367196899E1,-2.491119690E0,7.375118750E0,-3.373226643E0,-1.384818077E0,-1.728460073E0
7.378888750E0,-5.956114197E-1,-1.327589264E1,-3.572171631E0,7.385170750E0,-3.589849234E0,-1.436317801E0,-1.597638130E0
7.388940750E0,-2.966830444E0,-1.344234650E1,-2.374362488E0,7.395222750E0,-3.345029354E0,-1.668725967E0,-1.297274947E0
7.398992750E0,-6.244115295E0,-1.365714981E1,1.637145538E0,7.405275750E0,-2.815627098E0,-1.993083000E0,-1.031293392E0
7.409044750E0,-7.986342316E0,-1.375804001E1,6.009104004E0,7.415327750E0,-2.470098495E0,-1.748404741E0,-8.766821027E-1
7.419097750E0,-7.865693207E0,-1.419932236E1,7.416627045E0,7.425379750E0,-2.478312254E0,-9.460027814E-1,-7.869921923E-1
7.429149750E0,-7.521409149E0,-1.444705719E1,5.829776917E0,7.435431750E0,-2.664371967E0,-1.549836248E-2,-6.225520968E-1
7.439201750E0,-7.833809509E0,-1.458282486E1,2.672243042E0,7.445483750E0,-2.700678587E0,6.172215343E-1,-4.319640100E-1
7.449253750E0,-8.521030426E0,-1.426653259E1,-5.255570984E-1,7.455535750E0,-2.477015495E0,9.692669511E-1,-3.793545663E-1
7.459305750E0,-8.029153290E0,-1.332648743E1,-2.457140350E0,7.465587750E0,-2.239908695E0,1.106757879E0,-3.909167051E-1
7.469357750E0,-6.414910126E0,-1.243658798E1,-3.678750000E0,7.475639750E0,-2.104092836E0,9.068125486E-1,-4.824873507E-1
7.479409750E0,-3.891757050E0,-1.141615997E1,-4.323908386E0,7.485691750E0,-2.247757196E0,3.985536098E-1,-4.368442297E-1
7.489461750E0,-2.603835297E0,-1.109507767E1,-4.535717926E0,7.495743750E0,-2.429724693E0,-3.634489179E-1,-4.280199707E-1
7.499513750E0,-1.463057556E0,-1.034708313E1,-3.509002991E0,7.505795750E0,-2.396900654E0,-6.178423166E-1,-5.243315697E-1
7.509565750E0,-9.714797974E-2,-9.028175812E0,-8.229885864E-1,7.515847750E0,-2.291028261E0,-3.870607913E-1,-7.022915483E-1
7.519617750E0,1.381177826E0,-8.185877380E0,5.234614563E-1,7.525899750E0,-2.115104675E0,-1.117218956E-1,-8.346613050E-1
7.529669750E0,1.765728149E0,-8.046816559E0,8.440946960E-1,7.535951750E0,-1.947487116E0,-2.791539021E-2,-9.290323853E-1
7.539721750E0,1.940414886E0,-8.169710999E0,6.994953918E-1,7.546003750E0,-1.781971693E0,-7.290230691E-2,-1.026535749E0
7.549773750E0,1.760039978E0,-8.241411896E0,6.867718506E-1,7.556055750E0,-1.626036644E0,-2.717614770E-1,-1.120107293E0
7.559825750E0,1.599873047E0,-7.805069275E0,9.366023254E-1,7.566107750E0,-1.495457888E0,-6.953527331E-1,-1.168814659E0
7.569877750E0,1.256936188E0,-7.260801086E0,1.002914429E0,7.576159750E0,-1.384837270E0,-1.161237955E0,-1.188297629E0
7.579929750E0,6.532415771E-1,-6.688241730E0,9.976753235E-1,7.586211750E0,-1.276738763E0,-1.457441092E0,-1.204208970E0
7.589981750E0,7.050338745E-2,-5.813311157E0,9.818083191E-1,7.596263750E0,-1.146851182E0,-1.715084314E0,-1.224708200E0
7.600033750E0,-3.861968994E-1,-5.227878571E0,1.144370270E0,7.606315750E0,-1.025532246E0,-1.996810555E0,-1.229023099E0
7.610085750E0,-7.237449646E-1,-4.810995483E0,1.293160858E0,7.616367750E0,-9.121330380E-1,-2.333187103E0,-1.205210090E0
7.620137750E0,-9.066645813E-1,-4.513563995E0,1.310375061E0,7.626419750E0,-8.054915667E-1,-2.697786570E0,-1.159833670E0
7.630189750E0,-1.268761597E0,-4.216431885E0,1.527274017E0,7.636471750E0,-6.867442727E-1,-3.007056952E0,-1.075844526E0
7.640241750E0,-1.906884613E0,-3.919000397E0,1.605860596E0,7.646523750E0,-5.998871326E-1,-3.191155195E0,-9.370248318E-1
7.650293750E0,-2.448907471E0,-3.644022217E0,1.205443268E0,7.656575750E0,-4.484000504E-1,-3.102197170E0,-7.969841957E-1
7.660345750E0,-2.722837830E0,-3.554208984E0,5.528004456E-1,7.666627750E0,-1.387521774E-1,-2.763351679E0,-6.443395615E-1
7.670397750E0,-3.002606049E0,-3.441493378E0,-1.386117554E-1,7.676679750E0,1.878008246E-1,-2.443027258E0,-4.271717668E-1
7.680449750E0,-3.227737885E0,-3.371439056E0,-1.130598907E0,7.686731750E0,5.121943355E-1,-2.100158453E0,-2.038552910E-1
7.690501750E0,-2.973716125E0,-3.433859253E0,-2.049088898E0,7.696783750E0,8.448126912E-1,-1.648694634E0,-4.275184125E-2
7.700553750E0,-2.351460114E0,-3.535048828E0,-2.812651062E0,7.706835750E0,1.163493991E0,-1.084114909E0,6.173062697E-2
7.710605750E0,-1.626817017E0,-3.787723389E0,-3.571273499E0,7.716887750E0,1.439323545E0,-4.976730347E-1,9.952683747E-2
7.720657750E0,-8.765771484E-1,-4.318818970E0,-4.281845856E0,7.726939750E0,1.610827446E0,-2.843628637E-2,9.891750664E-2
7.730709750E0,-2.207908630E-1,-5.113965454E0,-5.139412537E0,7.736991750E0,1.669659495E0,2.616290450E-1,8.238552511E-2
7.740761750E0,1.019380188E-1,-6.076314240E0,-6.293811951E0,7.747043750E0,1.624276280E0,3.514436185E-1,7.632762939E-2
7.750813750E0,-5.927673340E-2,-7.142846375E0,-7.543563080E0,7.757095750E0,1.531575561E0,2.594703138E-1,1.073933393E-1
7.760865750E0,-6.489006042E-1,-8.260871429E0,-8.541837158E0,7.767147750E0,1.413895011E0,-1.560387015E-2,2.190671414E-1
7.770917750E0,-1.381926270E0,-9.379944305E0,-9.376800842E0,7.777199750E0,1.174003005E0,-3.729307055E-1,3.517753482E-1
7.780969750E0,-1.883832550E0,-1.083761307E1,-1.057715469E1,7.787251750E0,7.290431857E-1,-6.828036308E-1,3.963888884E-1
7.791021750E0,-1.612895966E0,-1.274180328E1,-1.217822525E1,7.797303750E0,1.839450002E-1,-9.426888824E-1,2.732021809E-1
7.801073750E0,4.625381470E-2,-1.501243149E1,-1.245470032E1,7.807355750E0,-3.759467900E-1,-1.179766893E0,2.870029956E-2
7.811125750E0,2.301464081E0,-1.689416840E1,-1.177331726E1,7.817407750E0,-8.218154907E-1,-1.282138944E0,-2.534564734E-1
7.821177750E0,3.817062378E0,-1.739921814E1,-1.079375427E1,7.827459750E0,-1.057640553E0,-1.320071101E0,-5.111636519E-1
7.831229750E0,4.472100220E0,-1.608135864E1,-9.317374420E0,7.837511750E0,-1.093333244E0,-1.417912841E0,-7.308195233E-1
7.841281750E0,4.328548737E0,-1.353560257E1,-8.144712982E0,7.847563750E0,-9.680153131E-1,-1.431293607E0,-8.985422254E-1
7.851333750E0,3.504212952E0,-1.079540085E1,-7.347321167E0,7.857615750E0,-7.076296806E-1,-1.357788801E0,-1.002792120E0
7.861385750E0,2.410437469E0,-8.018375702E0,-6.431675262E0,7.867667750E0,-3.556894958E-1,-1.185937166E0,-1.074745297E0
7.871437750E0,1.194665680E0,-5.791306915E0,-5.507946167E0,7.877719750E0,1.390990317E-1,-8.658345938E-1,-9.924018383E-1
7.881489750E0,-5.492079163E-1,-5.381908264E0,-3.730242920E0,7.887772750E0,8.009891510E-1,-2.638997436E-1,-6.682956815E-1
7.891541750E0,-3.058290253E0,-7.246730347E0,-1.977388000E-1,7.897824750E0,1.335163355E0,8.209705353E-1,-1.961290240E-1
7.901594750E0,-6.394851837E0,-1.078447357E1,2.501148834E0,7.907876750E0,1.231101394E0,1.960528612E0,3.524669707E-1
7.911646750E0,-9.835596771E0,-1.575818069E1,1.656305695E0,7.917928750E0,-1.644814759E-2,2.524916410E0,6.829804778E-1
7.921698750E0,-1.100481537E1,-2.250105881E1,-6.787185974E0,7.927980750E0,-1.041230917E0,1.632955074E0,6.443699598E-1
7.931750750E0,-1.058853104E1,-2.852588013E1,-9.329050140E0,7.938032750E0,-6.302208900E-1,4.276361763E-1,-5.301856250E-2
7.941802750E0,-6.110742645E0,-2.446707047E1,6.973997498E-1,7.948084750E0,7.889878154E-1,-5.895369500E-2,-4.276904464E-1
7.951854750E0,-2.676134949E0,-9.919572144E0,1.349937790E1,7.958136750E0,1.644267678E0,6.502921134E-2,-5.924513340E-1
7.961906750E0,-2.734513550E0,-2.603386230E0,1.047761169E1,7.968188750E0,2.017969847E0,8.262631893E-1,-5.843271017E-1
7.971958750E0,-3.757785645E0,-7.319778442E-1,5.384303284E0,7.978240750E0,1.904779196E0,1.729554534E0,-2.179964632E-1
7.982010750E0,-5.419330444E0,-3.162922668E-1,-1.053808594E-1,7.988292750E0,1.952492833E0,2.846129179E0,3.333838880E-1
7.992062750E0,-5.894891510E0,-7.761360168E-1,-1.400487671E0,7.998344750E0,2.352590799E0,3.944493294E0,9.536898732E-1
8.002114750E0,-4.690346375E0,-2.774031372E0,3.690126343E0,8.008396750E0,2.620460272E0,4.382484436E0,1.554561019E0
8.012166750E0,-4.303101654E0,-5.840853882E0,6.033353577E0,8.018448750E0,2.509834290E0,4.360057831E0,1.932918906E0
8.022218750E0,-3.702999573E0,-8.240663452E0,5.397026825E0,8.028500750E0,2.072708845E0,3.847285271E0,2.092760563E0
8.032270750E0,-2.244881744E0,-1.023062531E1,3.156785431E0,8.038552750E0,1.529827237E0,2.900269985E0,2.090192080E0
8.042322750E0,-7.756869507E-1,-1.217074081E1,6.801855469E-1,8.048604750E0,1.235417724E0,1.779592395E0,1.930383921E0
8.052374750E0,6.812333679E-1,-1.367690872E1,-2.427951050E-1,8.058656750E0,1.237209797E0,6.158764362E-1,1.700973392E0
8.062426750E0,1.927242279E0,-1.415576294E1,6.122268677E-1,8.068708750E0,1.491799712E0,-3.957484365E-1,1.368143201E0
8.072478750E0,3.124003601E0,-1.446995956E1,1.596280518E0,8.078760750E0,1.869804978E0,-1.010676026E0,8.067868352E-1
8.082530750E0,5.020709381E0,-1.460258377E1,1.851499786E0,8.088812750E0,2.071598053E0,-5.908989310E-1,2.068078071E-1
8.092582750E0,6.140979767E0,-1.328038330E1,7.890092468E-1,8.098864750E0,2.009923458E0,6.294857860E-1,-9.168153629E-3
8.102634750E0,4.270170135E0,-1.043869263E1,-1.164278870E0,8.108916750E0,1.911656260E0,1.634652019E0,3.372072428E-2
8.112686750E0,1.817370758E0,-8.038883057E0,-1.408121796E0,8.118968750E0,1.766692162E0,1.778072834E0,-2.285514958E-2
8.122738750E0,8.740324402E-1,-7.165299683E0,-1.327589264E0,8.129020750E0,1.649465680E0,1.408519745E0,-3.854808956E-2
8.132790750E0,-4.733157349E-1,-7.029981079E0,-1.249451752E0,8.139072750E0,1.586259842E0,1.012483001E0,7.171340287E-2
8.142842750E0,-1.708846436E0,-7.022496643E0,-1.440753937E0,8.149124750E0,1.513802171E0,8.586234450E-1,2.120755762E-1
8.152894750E0,-1.730401611E0,-7.033573608E0,-1.874102783E0,8.159176750E0,1.433492661E0,9.679183960E-1,2.971166372E-1
8.162946750E0,-1.081351318E0,-7.229216766E0,-1.820813599E0,8.169228750E0,1.376869321E0,1.097178698E0,3.414050043E-1
8.172998750E0,-3.095562744E-1,-7.475903778E0,-9.446855164E-1,8.179280750E0,1.375800252E0,1.200728297E0,4.011013806E-1
8.183050750E0,1.074765015E-1,-7.754025421E0,-5.688171387E-3,8.189332750E0,1.420921087E0,1.232022047E0,4.747939706E-1
8.193102750E0,2.859054565E-2,-8.038284302E0,5.887257385E-1,8.199384750E0,1.412379622E0,1.322759271E0,5.959177017E-1
8.203154750E0,-4.478686523E-1,-8.279582520E0,4.676275635E-1,8.209436750E0,1.358038545E0,1.413508892E0,7.503921986E-1
8.213206750E0,-8.077203369E-1,-8.580905914E0,-2.158511353E-1,8.219488750E0,1.304965734E0,1.404982328E0,8.718236685E-1
8.223258750E0,-7.304809570E-1,-8.805289307E0,-4.748126221E-1,8.229540750E0,1.279266000E0,1.198468328E0,9.783391953E-1
8.233310750E0,-6.701564026E-1,-8.889564056E0,-2.249821472E-1,8.239592750E0,1.278288841E0,8.582781553E-1,1.059508801E0
8.243362750E0,-6.119274902E-1,-9.130562897E0,1.932481384E-1,8.249644750E0,1.252280235E0,4.473963678E-1,1.106637001E0
8.253414750E0,-4.444258118E-1,-9.400751038E0,3.143463135E-3,8.259696750E0,1.215339541E0,5.769708380E-2,1.120936036E0
8.263466750E0,-1.396595764E-1,-9.602681122E0,-5.146298218E-1,8.269748750E0,1.193124771E0,-1.910157949E-1,1.132447362E0
8.273518750E0,1.675016785E-1,-9.717791748E0,-7.863148499E-1,8.279800750E0,1.182567596E0,-2.302683741E-1,1.115533113E0
8.283570750E0,6.554869080E-1,-9.769733734E0,-7.677534485E-1,8.289852750E0,1.184190512E0,-7.000200450E-2,1.056147218E0
8.293622750E0,1.592538300E0,-1.009994705E1,-5.026547241E-1,8.299904750E0,1.158553720E0,2.626265585E-1,9.162339568E-1
8.303674750E0,2.813549194E0,-1.041354492E1,-2.757266235E-1,8.309956750E0,1.072444916E0,6.211767197E-1,7.236877084E-1
8.313726750E0,3.629053345E0,-1.054048096E1,-2.182461548E-1,8.320008750E0,9.516668916E-1,8.119327426E-1,5.092645884E-1
8.323778750E0,3.792513428E0,-1.053658905E1,-3.598516846E-1,8.330060750E0,8.528189063E-1,8.953261375E-1,2.934994996E-1
8.333830750E0,3.286415863E0,-1.043300446E1,-4.427792358E-1,8.340112750E0,7.497221231E-1,9.248415232E-1,9.770540148E-2
8.343882750E0,2.501298523E0,-1.040022263E1,-8.491841125E-1,8.350164750E0,6.137664318E-1,9.076910019E-1,-3.303050250E-2
8.353935750E0,1.330283661E0,-1.062146255E1,-1.696122894E0,8.360217750E0,4.023145735E-1,8.390527964E-1,-3.995964304E-2
8.363987750E0,-1.302291870E-1,-1.091515182E1,-2.508034515E0,8.370269750E0,1.534655988E-1,7.249576449E-1,1.810971648E-3
8.374039750E0,-1.394799500E0,-1.089000412E1,-2.708767090E0,8.380321750E0,-4.891040549E-2,6.571876407E-1,6.795242429E-2
8.384091750E0,-1.831441498E0,-1.094928085E1,-2.015558624E0,8.390373750E0,-1.646465957E-1,5.429140925E-1,1.753683686E-1
8.394143750E0,-1.796414337E0,-1.096799194E1,-8.981323242E-1,8.400425750E0,-2.778030038E-1,3.066457808E-1,2.779589593E-1
8.404195750E0,-1.296154633E0,-1.130898285E1,-4.388873291E-1,8.410477750E0,-3.824833632E-1,7.822937518E-2,3.596780598E-1
8.414247750E0,-3.019221497E-1,-1.186462738E1,-5.342390442E-1,8.420529750E0,-4.352606237E-1,-4.928565025E-2,3.931220770E-1
8.424299750E0,9.885443115E-1,-1.241248810E1,-8.298742676E-1,8.430581750E0,-5.166806579E-1,-5.191712081E-2,3.984300196E-1
8.434351750E0,2.357297974E0,-1.291798691E1,-1.356928253E0,8.440633750E0,-6.791574955E-1,1.828444749E-2,3.415236473E-1
8.444403750E0,3.617227936E0,-1.330612976E1,-1.847607880E0,8.450685750E0,-9.105545282E-1,1.102034524E-1,1.629970670E-1
8.454455750E0,4.541256409E0,-1.408181671E1,-1.959425354E0,8.460737750E0,-1.138623595E0,1.482772082E-1,-1.643421352E-1
8.464507750E0,4.832101593E0,-1.496348328E1,-1.364113312E0,8.470789750E0,-1.367519975E0,5.294110626E-2,-5.293883085E-1
8.474559750E0,4.193529510E0,-1.554322769E1,-4.677772522E-1,8.480841750E0,-1.623215556E0,-2.157014906E-1,-8.439394236E-1
8.484611750E0,3.255729675E0,-1.615904709E1,4.745132446E-2,8.490893750E0,-1.882089376E0,-7.599408031E-1,-1.187508583E0
8.494663750E0,3.124901733E0,-1.634780457E1,-4.954696655E-2,8.500945750E0,-2.100711107E0,-1.327337623E0,-1.488654137E0
8.504715750E0,2.807411957E0,-1.553185135E1,-4.393363953E-1,8.510997750E0,-2.420751095E0,-1.579059839E0,-1.681764722E0
8.514767750E0,1.585951996E0,-1.459539871E1,-1.216969299E0,8.521049750E0,-2.942200184E0,-1.546003699E0,-1.766720653E0
8.524819750E0,5.688171387E-2,-1.363125366E1,-2.436932373E0,8.531101750E0,-3.386111259E0,-1.504409075E0,-1.781802654E0
8.534871750E0,-1.414408722E0,-1.288610321E1,-2.912493439E0,8.541153750E0,-3.467748165E0,-1.678437114E0,-1.701475263E0
8.544923750E0,-2.998414764E0,-1.281140854E1,-1.160087585E0,8.551205750E0,-3.157233238E0,-1.961315989E0,-1.383988142E0
8.554975750E0,-5.670358429E0,-1.314162186E1,2.686912537E0,8.561257750E0,-2.585311651E0,-2.108408928E0,-1.160036802E0
8.565027750E0,-6.784641266E0,-1.384800293E1,6.832541656E0,8.571309750E0,-2.251275063E0,-1.658100367E0,-1.112625360E0
8.575079750E0,-6.507417755E0,-1.441068283E1,7.798183594E0,8.581361750E0,-2.308310032E0,-7.627223134E-1,-1.026885390E0
8.585131750E0,-6.768025818E0,-1.454660019E1,5.409301300E0,8.591413750E0,-2.496160507E0,9.040908515E-2,-8.250723481E-1
8.595183750E0,-7.823031921E0,-1.384096756E1,1.884131927E0,8.601465750E0,-2.498887777E0,6.561018229E-1,-6.963067651E-1
8.605235750E0,-8.165819092E0,-1.330193848E1,-1.188678131E0,8.611517750E0,-2.271450043E0,9.774409533E-1,-7.204281092E-1
8.615287750E0,-6.887477417E0,-1.267040176E1,-2.801574097E0,8.621569750E0,-2.033123016E0,1.035167813E0,-7.361392379E-1
8.625339750E0,-5.440586243E0,-1.158261383E1,-3.608695679E0,8.631621750E0,-1.965319872E0,7.919431925E-1,-7.973423600E-1
8.635391750E0,-3.407813416E0,-1.091709778E1,-4.088897095E0,8.641673750E0,-2.143993378E0,2.029101104E-1,-7.025771737E-1
8.645443750E0,-2.903362427E0,-1.069510941E1,-3.939358063E0,8.651725750E0,-2.297666311E0,-4.685132802E-1,-7.022914290E-1
8.655495750E0,-2.106569366E0,-1.016790573E1,-2.375110931E0,8.661777750E0,-2.264047861E0,-5.196444392E-1,-7.861770988E-1
8.665547750E0,-1.401385803E0,-8.991651764E0,3.427871704E-2,8.671829750E0,-2.118361950E0,-1.064505130E-1,-9.434889555E-1
8.675599750E0,1.151106262E-1,-7.626939697E0,1.023721161E0,8.681881750E0,-1.907525420E0,-1.777856052E-1,-1.055553436E0
8.685651750E0,9.413923645E-1,-7.754324799E0,8.855584717E-1,8.691933750E0,-1.743548393E0,-2.873373926E-1,-1.116494775E0
8.695703750E0,1.252445526E0,-8.240513763E0,1.047671356E0,8.701985750E0,-1.690517664E0,-5.294863582E-1,-1.240179658E0
8.705755750E0,1.797013092E0,-8.206235046E0,6.128256226E-1,8.712037750E0,-1.640374660E0,-1.010198116E0,-1.391061783E0
8.715807750E0,2.189796295E0,-8.084089050E0,1.067430267E0,8.722089750E0,-1.565530181E0,-1.415447712E0,-1.500646472E0
8.725859750E0,1.923350372E0,-7.542215881E0,1.581461334E0,8.732141750E0,-1.476251721E0,-1.666540861E0,-1.530739427E0
8.735911750E0,9.732760620E-1,-6.639293518E0,1.637295227E0,8.742193750E0,-1.405289888E0,-1.996643901E0,-1.472811460E0
8.745963750E0,-1.158590698E-1,-5.112019501E0,1.421294403E0,8.752245750E0,-1.197197676E0,-2.130395889E0,-1.392389059E0
8.756015750E0,-6.521937561E-1,-4.124523010E0,1.687440948E0,8.762297750E0,-1.009995103E0,-2.156125307E0,-1.300955296E0
8.766067750E0,-1.229842529E0,-3.780388641E0,1.444645844E0,8.772349750E0,-8.969718218E-1,-2.346822500E0,-1.225799322E0
8.776119750E0,-1.761387177E0,-3.638334045E0,1.586850128E0,8.782401750E0,-7.988738418E-1,-2.633307934E0,-1.132331610E0
8.786171750E0,-2.113604736E0,-3.624562683E0,1.783840485E0,8.792453750E0,-6.466377378E-1,-2.738734484E0,-1.044486165E0
8.796224750E0,-2.493365021E0,-3.666625214E0,1.644180908E0,8.802506750E0,-4.093263447E-1,-2.666162968E0,-9.473932385E-1
8.806276750E0,-2.789898376E0,-3.451821899E0,1.063837738E0,8.812558750E0,-1.570195407E-1,-2.566273212E0,-8.058579564E-1
8.816328750E0,-3.054398346E0,-3.339854736E0,1.739382935E-1,8.822610750E0,1.126159802E-1,-2.441320181E0,-6.354894638E-1
8.826380750E0,-3.144510956E0,-3.359164581E0,-5.664221191E-1,8.832662750E0,4.063653052E-1,-2.284259558E0,-4.581594169E-1
8.836432750E0,-2.968926086E0,-3.438798981E0,-1.202898560E0,8.842714750E0,7.191247344E-1,-2.076104403E0,-2.819312811E-1
8.846484750E0,-2.507136383E0,-3.637286224E0,-1.983525238E0,8.852766750E0,1.017109990E0,-1.734126449E0,-1.440860778E-1
8.856536750E0,-1.798659668E0,-3.874692535E0,-3.071013794E0,8.862818750E0,1.283671618E0,-1.222540498E0,-6.557038426E-2
8.866588750E0,-9.592053223E-1,-4.250710602E0,-4.320315857E0,8.872870750E0,1.523074031E0,-6.447560191E-1,-1.289279014E-2
8.876640750E0,-1.297801208E-1,-4.953798523E0,-5.618865509E0,8.882922750E0,1.655314088E0,-2.276081294E-1,4.198803008E-2
8.886692750E0,2.486329651E-1,-5.946983185E0,-7.057972870E0,8.892974750E0,1.653863192E0,-6.410973519E-2,1.116920114E-1
8.896744750E0,6.047424316E-2,-7.268734589E0,-8.366851044E0,8.903026750E0,1.587174654E0,-1.209033877E-1,2.292499989E-1
8.906796750E0,-4.505630493E-1,-8.431217194E0,-8.923693085E0,8.913078750E0,1.406310558E0,-3.167983294E-1,3.794245720E-1
8.916848750E0,-9.861492920E-1,-9.664502563E0,-9.239236908E0,8.923130750E0,9.808703661E-1,-5.576675534E-1,4.627452791E-1
8.926900750E0,-1.175804901E0,-1.154204819E1,-1.052206924E1,8.933182750E0,3.597010970E-1,-7.993971109E-1,3.843082488E-1
8.936952750E0,-1.398092651E-1,-1.414498535E1,-1.206431213E1,8.943234750E0,-2.686685622E-1,-1.118420839E0,1.328113079E-1
8.947004750E0,2.079625397E0,-1.677052551E1,-1.199859879E1,8.953286750E0,-7.776186466E-1,-1.433054209E0,-1.664249301E-1
8.957056750E0,3.803889771E0,-1.816442688E1,-1.098565521E1,8.963338750E0,-1.055136442E0,-1.572637200E0,-4.214482009E-1
8.967108750E0,4.439168701E0,-1.756791733E1,-9.348809052E0,8.973390750E0,-1.116115928E0,-1.628133297E0,-6.312901378E-1
8.977160750E0,4.511019287E0,-1.519879395E1,-7.839946747E0,8.983442750E0,-1.044540405E0,-1.647474647E0,-7.935445309E-1
8.987212750E0,3.823648682E0,-1.224708206E1,-7.046895905E0,8.993494750E0,-8.456109762E-1,-1.664554834E0,-9.098860621E-1
8.997264750E0,2.761607208E0,-9.047785034E0,-6.302044830E0,9.003546750E0,-5.173261166E-1,-1.636256933E0,-9.748801589E-1
9.007316750E0,1.529070282E0,-6.284231873E0,-5.282215576E0,9.013598750E0,-7.361656427E-2,-1.420018673E0,-9.983754158E-1
9.017368750E0,1.127156067E-1,-4.362827454E0,-3.881877594E0,9.023650750E0,5.536891222E-1,-1.074153900E0,-8.930353522E-1
9.027420750E0,-1.426234131E0,-3.645070038E0,-1.281634827E0,9.033702750E0,1.309982419E0,-4.693745673E-1,-6.531607509E-1
9.037472750E0,-3.524420929E0,-4.909041595E0,1.816173248E0,9.043754750E0,1.974447608E0,4.631834626E-1,-3.288177252E-1
9.047524750E0,-6.321055298E0,-7.503296814E0,3.750600586E0,9.053806750E0,2.063015223E0,1.418398023E0,1.847308129E-1
9.057576750E0,-9.516011353E0,-1.166135010E1,2.243983612E0,9.063858750E0,8.582384586E-1,2.254878521E0,6.586210728E-1
9.067628750E0,-1.178933395E1,-1.902199356E1,-6.502178650E0,9.073910750E0,-8.862654567E-1,1.993888617E0,8.459028006E-1
9.077680750E0,-1.187315964E1,-2.925890579E1,-1.500300110E1,9.083962750E0,-1.322413087E0,1.022998929E0,2.420185804E-1
9.087732750E0,-7.589068451E0,-3.306414276E1,-8.079299011E0,9.094014750E0,2.447064668E-1,5.517264009E-1,-3.376735747E-1
9.097784750E0,-1.025966492E0,-1.914982773E1,1.163500488E1,9.104066750E0,1.468551636E0,4.252818525E-1,-6.693954468E-1
9.107836750E0,-2.625540161E-1,-6.271957397E0,1.507485168E1,9.114118750E0,1.920166731E0,6.625341177E-1,-7.845601439E-1
9.117888750E0,-1.847158813E0,-2.649190979E0,7.384443970E0,9.124170750E0,1.943890572E0,1.327126622E0,-6.400321126E-1
9.127940750E0,-3.430416412E0,-1.314716034E0,2.456242218E0,9.134222750E0,1.760557294E0,2.198719263E0,-2.037296146E-1
9.137992750E0,-5.432053986E0,-9.584568787E-1,-2.476749573E0,9.144274750E0,1.979079485E0,3.215624094E0,2.992564738E-1
9.148044750E0,-5.210963745E0,-1.484313354E0,-5.069956970E-1,9.154326750E0,2.469821215E0,4.091965675E0,9.033710957E-1
9.158096750E0,-4.886588287E0,-3.545377350E0,4.602628784E0,9.164378750E0,2.695818663E0,4.378367901E0,1.335588336E0
9.168148750E0,-4.236639862E0,-5.759572906E0,5.719905396E0,9.174430750E0,2.563955784E0,4.008965492E0,1.717930436E0
9.178200750E0,-3.783681793E0,-7.504943390E0,4.179159393E0,9.184482750E0,2.148288012E0,3.352685452E0,1.870155096E0
9.188252750E0,-2.385140076E0,-9.135352936E0,1.972148895E0,9.194534750E0,1.804725885E0,2.474536657E0,1.820406675E0
9.198304750E0,-2.323168945E-1,-1.090661957E1,1.126257935E0,9.204586750E0,1.608691692E0,1.476472139E0,1.765297771E0
9.208356750E0,3.367996216E-1,-1.249616409E1,1.350791016E0,9.214639750E0,1.443402052E0,5.185883045E-1,1.720821977E0
9.218409750E0,6.640191650E-1,-1.349758163E1,1.659598846E0,9.224690750E0,1.498138309E0,-4.953085482E-1,1.449438691E0
9.228461750E0,1.973346405E0,-1.394290558E1,2.036814423E0,9.234743750E0,1.748847008E0,-1.204444170E0,9.499499798E-1
9.238513750E0,3.465892639E0,-1.403825729E1,1.933229828E0,9.244795750E0,1.907978296E0,-9.259099364E-1,4.276785851E-1
9.248565750E0,4.627477112E0,-1.331047073E1,7.777825928E-1,9.254847750E0,1.884013534E0,2.419644743E-1,1.394824982E-1
9.258617750E0,4.010909271E0,-1.110914841E1,-6.518943787E-1,9.264899750E0,1.794950724E0,1.312998772E0,7.236641645E-2
9.268669750E0,2.272873535E0,-9.028624878E0,-9.801617432E-1,9.274951750E0,1.672562122E0,1.745435119E0,3.860978782E-2
9.278721750E0,7.393125916E-1,-7.872578888E0,-1.014290771E0,9.285003750E0,1.645639300E0,1.686310530E0,-3.375081345E-2
9.288773750E0,-5.291496277E-1,-7.127278748E0,-9.072633362E-1,9.295055750E0,1.618091583E0,1.442709327E0,5.742384121E-2
9.298825750E0,-1.860930176E0,-6.798262939E0,-1.347647552E0,9.305107750E0,1.544281244E0,1.263588548E0,1.387078613E-1
9.308877750E0,-2.080673218E0,-6.836283875E0,-1.974394226E0,9.315159750E0,1.450354934E0,1.181382656E0,1.793021709E-1
9.318929750E0,-1.417402496E0,-7.182513885E0,-1.658551025E0,9.325211750E0,1.369589806E0,1.167037010E0,2.251015604E-1
9.328981750E0,-1.010997620E0,-7.297474823E0,-6.500981140E-1,9.335263750E0,1.318585992E0,1.211095572E0,3.195167482E-1
9.339033750E0,-7.571255493E-1,-7.461683350E0,4.855902100E-1,9.345315750E0,1.287943006E0,1.387353539E0,4.423594177E-1
9.349085750E0,-8.265811157E-1,-7.845485229E0,1.082099762E0,9.355367750E0,1.284394622E0,1.661913037E0,5.659117103E-1
9.359137750E0,-8.789721680E-1,-8.411458282E0,1.028511200E0,9.365419750E0,1.229945779E0,1.859402418E0,7.135688663E-1
9.369189750E0,-9.315129089E-1,-9.041947174E0,3.197351074E-1,9.375471750E0,1.155700326E0,1.780933380E0,8.673307300E-1
9.379241750E0,-8.424481201E-1,-9.565258942E0,-1.688488770E-1,9.385523750E0,1.123928666E0,1.364754200E0,9.780290723E-1
9.389293750E0,-7.991880798E-1,-1.003947281E1,1.437011719E-2,9.395575750E0,1.132957578E0,7.960278988E-1,1.030717373E0
9.399345750E0,-7.472460938E-1,-1.017479141E1,1.386117554E-1,9.405627750E0,1.173105240E0,2.866989970E-1,1.070691705E0
9.409397750E0,-4.569996643E-1,-9.893675995E0,-3.218307495E-2,9.415679750E0,1.220921516E0,1.242245454E-2,1.092870831E0
9.419449750E0,1.130149841E-1,-9.659862213E0,-2.438429260E-1,9.425731750E0,1.244214416E0,1.220270339E-2,1.073091745E0
9.429501750E0,1.120719452E0,-9.803413696E0,-3.499722290E-1,9.435783750E0,1.217056274E0,2.651715875E-1,1.005051970E0
9.439553750E0,2.596051483E0,-1.026355682E1,-3.195854187E-1,9.445835750E0,1.143604994E0,6.476565599E-1,9.020753503E-1
9.449605750E0,3.969445496E0,-1.060349991E1,-1.053808594E-1,9.455887750E0,1.044448614E0,1.036119342E0,7.341590524E-1
9.459657750E0,4.848118286E0,-1.066741699E1,1.311273193E-1,9.465939750E0,9.568803310E-1,1.260982752E0,5.100086331E-1
9.469709750E0,5.129832458E0,-1.053539154E1,-7.035369873E-3,9.475991750E0,8.496747613E-1,1.216519952E0,2.643165886E-1
9.479761750E0,4.891827393E0,-1.028316605E1,-7.418572998E-1,9.486043750E0,7.282446027E-1,9.860857129E-1,6.087919697E-2
9.489813750E0,4.026327209E0,-9.967622223E0,-1.558558960E0,9.496095750E0,5.971550345E-1,7.975685596E-1,-3.211652115E-2
9.499865750E0,2.469265137E0,-1.003019211E1,-1.791025543E0,9.506147750E0,4.240950644E-1,6.757744551E-1,-4.663527757E-2
9.509917750E0,8.196954346E-1,-1.049766998E1,-1.987117767E0,9.516199750E0,2.227181792E-1,5.191606283E-1,-1.018159091E-2
9.519969750E0,-5.264552307E-1,-1.097981735E1,-2.184257813E0,9.526251750E0,3.626397625E-2,3.653803468E-1,7.080188394E-2
9.530021750E0,-1.392703857E0,-1.123548569E1,-1.861977997E0,9.536303750E0,-9.219598770E-2,2.678002715E-1,1.556153148E-1
9.540073750E0,-1.565145264E0,-1.130928223E1,-1.283131714E0,9.546355750E0,-1.842860281E-1,1.626310945E-1,2.137598991E-1
9.550125750E0,-1.074315948E0,-1.131841324E1,-1.013392639E0,9.556407750E0,-2.852275372E-1,1.198015884E-1,2.618826628E-1
9.560177750E0,-3.887416077E-1,-1.151690048E1,-1.214574280E0,9.566459750E0,-3.740243912E-1,1.397400498E-1,2.969041467E-1
9.570229750E0,3.772155762E-1,-1.178080170E1,-1.551523590E0,9.576511750E0,-4.695487618E-1,1.830182672E-1,2.884920239E-1
9.580281750E0,1.366807709E0,-1.202075272E1,-1.849254456E0,9.586563750E0,-5.944026113E-1,1.782225668E-1,2.274620235E-1
9.590333750E0,2.431543579E0,-1.213122299E1,-1.914518738E0,9.596615750E0,-7.637903094E-1,1.723308563E-1,1.245628074E-1
9.600385750E0,3.302282867E0,-1.220816299E1,-1.700613556E0,9.606667750E0,-9.682078362E-1,2.003479898E-1,-4.278896376E-2
9.610437750E0,3.670966187E0,-1.274255173E1,-1.305135956E0,9.616719750E0,-1.170461893E0,1.646637619E-1,-2.963221669E-1
9.620489750E0,3.566782837E0,-1.370460114E1,-5.995033264E-1,9.626771750E0,-1.450965524E0,-3.965770360E-3,-5.492496490E-1
9.630541750E0,3.107537842E0,-1.448762283E1,-3.080593872E-1,9.636824750E0,-1.800688148E0,-3.340416849E-1,-8.351756930E-1
9.640594750E0,2.996917877E0,-1.481334549E1,-4.366419983E-1,9.646876750E0,-2.109165907E0,-8.532775044E-1,-1.129359245E0
9.650646750E0,3.054997101E0,-1.471335342E1,-2.154020691E-1,9.656928750E0,-2.417123318E0,-1.437281251E0,-1.459190607E0
9.660698750E0,2.994971924E0,-1.444990128E1,-2.796185303E-1,9.666980750E0,-2.834857225E0,-1.711025238E0,-1.745423436E0
9.670750750E0,2.383643188E0,-1.425321030E1,-1.447639618E0,9.677032750E0,-3.362974405E0,-1.601427436E0,-1.798763394E0
9.680802750E0,-1.695973206E-1,-1.433089874E1,-2.990181885E0,9.687084750E0,-3.693350315E0,-1.573108435E0,-1.689442158E0
9.690854750E0,-2.964285736E0,-1.449899918E1,-2.849175110E0,9.697136750E0,-3.458653688E0,-1.767954588E0,-1.419055939E0
9.700906750E0,-5.552104340E0,-1.394335464E1,1.340612183E0,9.707188750E0,-2.895961761E0,-2.028911829E0,-1.128110647E0
9.710958750E0,-7.419620819E0,-1.359936996E1,6.051166534E0,9.717240750E0,-2.461423397E0,-1.851958752E0,-1.011075377E0
9.721010750E0,-7.441325684E0,-1.416743866E1,7.641758881E0,9.727292750E0,-2.368908644E0,-1.054009318E0,-9.931720495E-1
9.731062750E0,-6.679260406E0,-1.464045502E1,6.386319580E0,9.737344750E0,-2.473184109E0,1.906559989E-2,-8.288452029E-1
9.741114750E0,-7.438780975E0,-1.464524506E1,3.549269257E0,9.747396750E0,-2.514053345E0,7.974647880E-1,-6.361368299E-1
9.751166750E0,-8.449479218E0,-1.416175049E1,2.459385681E-1,9.757448750E0,-2.367666006E0,1.082147598E0,-5.627158284E-1
9.761218750E0,-7.410489807E0,-1.336346054E1,-2.387984161E0,9.767500750E0,-2.175031662E0,1.149572372E0,-5.887684822E-1
9.771270750E0,-5.274731140E0,-1.266890488E1,-3.671115875E0,9.777552750E0,-2.078454971E0,9.904011488E-1,-7.079902291E-1
9.781322750E0,-2.531685333E0,-1.217762650E1,-4.379592590E0,9.787604750E0,-2.145043373E0,5.161238313E-1,-7.073041797E-1
9.791374750E0,-1.445543976E0,-1.238853790E1,-4.520150299E0,9.797656750E0,-2.188628912E0,-1.801809669E-2,-7.332990170E-1
9.801426750E0,-2.206411743E-1,-1.157542877E1,-2.866389313E0,9.807708750E0,-2.160592318E0,-5.813646317E-2,-8.760213256E-1
9.811478750E0,1.043929138E0,-1.036744080E1,-3.336561584E-1,9.817760750E0,-2.083946466E0,2.855182625E-2,-1.018536448E0
9.821530750E0,1.953288116E0,-9.692194977E0,7.679031372E-1,9.827812750E0,-1.966463089E0,-1.328753531E-1,-1.080356002E0
9.831582750E0,2.043400726E0,-9.086853790E0,8.562194824E-1,9.837864750E0,-1.836878300E0,-2.815748155E-1,-1.111657143E0
9.841634750E0,1.473835144E0,-9.014853516E0,9.226812744E-1,9.847916750E0,-1.767840624E0,-3.917520642E-1,-1.160345078E0
9.851686750E0,9.764195251E-1,-8.557554474E0,6.659651184E-1,9.857968750E0,-1.682450891E0,-7.507579327E-1,-1.193629265E0
9.861738750E0,5.965095520E-1,-7.764054565E0,7.300318909E-1,9.868020750E0,-1.582029223E0,-1.383473277E0,-1.198024869E0
9.871790750E0,4.697232056E-1,-7.368726654E0,1.486858063E0,9.878072750E0,-1.555578947E0,-1.827502608E0,-1.241827726E0
9.881842750E0,8.264314270E-1,-6.502627716E0,1.410516815E0,9.888124750E0,-1.450731158E0,-2.167989492E0,-1.240202308E0
9.891894750E0,4.540058899E-1,-5.640720062E0,1.450184326E0,9.898176750E0,-1.315828204E0,-2.417942762E0,-1.242593288E0
9.901946750E0,-1.106199646E-1,-4.601131897E0,1.665736084E0,9.908228750E0,-1.239055395E0,-2.697607756E0,-1.220163107E0
9.911998750E0,-9.017248535E-1,-3.485352173E0,1.660796356E0,9.918280750E0,-1.066457748E0,-2.760412455E0,-1.156365395E0
9.922050750E0,-1.486558685E0,-3.176694031E0,1.785487061E0,9.928332750E0,-9.920532703E-1,-2.927511454E0,-1.106283069E0
9.932102750E0,-2.035317535E0,-2.836301880E0,1.751657410E0,9.938384750E0,-9.431970716E-1,-3.128074646E0,-1.015939116E0
9.942154750E0,-2.580184479E0,-2.810106354E0,1.835183716E0,9.948436750E0,-8.453620672E-1,-3.244476318E0,-8.989446759E-1
9.952206750E0,-2.982248383E0,-3.078049164E0,1.652563477E0,9.958488750E0,-6.040133238E-1,-3.127993822E0,-7.921742797E-1
9.962258750E0,-3.355572052E0,-3.263513489E0,1.239721985E0,9.968540750E0,-3.041321933E-1,-2.904131889E0,-6.504113674E-1
9.972310750E0,-3.857328644E0,-3.347638550E0,5.592370605E-1,9.978592750E0,2.995630167E-2,-2.623748064E0,-4.591940343E-1
9.982362750E0,-4.167034607E0,-3.464096375E0,-1.884580994E-1,9.988644750E0,3.854734898E-1,-2.260720491E0,-2.585164905E-1
9.992414750E0,-4.016896820E0,-3.659589844E0,-9.907896423E-1,9.998696750E0,7.451754808E-1,-1.815257907E0,-9.762851894E-2
1.000246675E1,-3.085383911E0,-3.983067169E0,-1.983375549E0,1.000874875E1,1.101352692E0,-1.305676818E0,-1.579325274E-2
1.001251875E1,-1.720821533E0,-4.283941498E0,-3.065175934E0,1.001880075E1,1.429429650E0,-7.093290687E-1,-2.044418594E-3
1.002257075E1,-5.559439087E-1,-4.875062256E0,-4.229903870E0,1.002885275E1,1.691500545E0,-2.047407925E-1,-2.706469595E-2
1.003262275E1,4.161346436E-2,-5.794749756E0,-5.652545471E0,1.003890475E1,1.847947955E0,5.400926620E-2,-3.812666982E-2
1.004267575E1,1.516346741E-1,-6.877298584E0,-7.150929565E0,1.004895775E1,1.904518723E0,7.185979933E-2,9.941091761E-3
1.005272775E1,-3.909869385E-1,-7.924221497E0,-8.312514038E0,1.005900975E1,1.840584159E0,-1.910751462E-1,1.254530400E-1
1.006277975E1,-1.089584198E0,-8.960366821E0,-8.897796936E0,1.006906175E1,1.589483261E0,-5.859040618E-1,3.056642711E-1
1.007283175E1,-1.478774872E0,-1.004321503E1,-9.718540192E0,1.007911325E1,1.089862585E0,-8.394747972E-1,4.208396077E-1
1.008288325E1,-1.149908752E0,-1.148741180E1,-1.135778137E1,1.008916525E1,3.522448540E-1,-9.494515657E-1,3.507107496E-1
1.009293525E1,9.057664490E-1,-1.390757904E1,-1.322095688E1,1.009921725E1,-3.365404904E-1,-1.039777517E0,8.911004663E-2
1.010298725E1,3.611390076E0,-1.649210449E1,-1.297082703E1,1.010926925E1,-7.217338681E-1,-1.088304520E0,-2.239856273E-1
1.011303925E1,4.938380585E0,-1.748828293E1,-1.058359131E1,1.011932125E1,-8.288238645E-1,-1.100492239E0,-5.189980865E-1
1.012309125E1,4.958438873E0,-1.647668655E1,-8.200397186E0,1.012937325E1,-7.719919682E-1,-1.163278461E0,-7.186475992E-1
1.013314325E1,3.999981995E0,-1.439736053E1,-6.901099091E0,1.013942525E1,-7.275949121E-1,-1.308656693E0,-8.189941645E-1
1.014319525E1,2.274520111E0,-1.201416641E1,-7.070696411E0,1.014947725E1,-6.422252655E-1,-1.371697545E0,-8.913503289E-1
1.015324725E1,8.771759033E-1,-9.587412872E0,-7.108717346E0,1.015952925E1,-4.359551966E-1,-1.274613619E0,-9.233013391E-1
1.016329925E1,-6.270460510E-1,-7.773335266E0,-6.168073425E0,1.016958125E1,-1.271355599E-1,-1.104653358E0,-8.401638269E-1
1.017335125E1,-2.362387390E0,-7.350764008E0,-5.027445374E0,1.017963325E1,3.459526300E-1,-8.498820066E-1,-5.867859125E-1
1.018340325E1,-3.521127777E0,-7.779622192E0,-2.717149658E0,1.018968525E1,7.783088684E-1,-1.829574257E-1,-2.960755229E-1
