"time_acc","acc_x","acc_y","acc_z","time_gyro","gyro_x","gyro_y","gyro_z"
8.574166568E-4,1.908680878E0,-1.093790451E1,-8.951385498E-1,2.112416667E-3,3.062918484E-1,-4.131227434E-1,5.455825850E-2
1.090141665E-2,1.638343048E0,-1.091320587E1,-1.131197662E0,1.215641666E-2,3.550322354E-1,-5.849405527E-1,-3.381739138E-3
2.094441664E-2,1.034049683E0,-1.130479156E1,-1.339414673E0,2.219941665E-2,2.876607180E-1,-7.732041478E-1,-6.616729498E-2
3.098841663E-2,-1.392105103E-2,-1.242461288E1,-1.820364532E0,3.224341664E-2,2.274705917E-1,-8.402348161E-1,-1.137207001E-1
4.103141668E-2,-1.219364319E0,-1.369606888E1,-2.108814697E0,4.228641663E-2,1.949396133E-1,-7.036961317E-1,-1.723410785E-1
5.107541668E-2,-1.852996674E0,-1.426623322E1,-1.461410980E0,5.233041669E-2,1.010919362E-1,-5.874717832E-1,-2.748874426E-1
6.111841666E-2,-1.987117767E0,-1.424497742E1,-1.027613068E0,6.237341667E-2,-4.259842634E-2,-5.412886739E-1,-3.912503421E-1
7.116241666E-2,-1.821861420E0,-1.394021118E1,-8.360115051E-1,7.241741667E-2,-1.828649938E-1,-5.371578336E-1,-5.098510385E-1
8.120541665E-2,-1.602717133E0,-1.349114502E1,-3.954776001E-1,8.246041666E-2,-3.352846503E-1,-5.743652582E-1,-6.254742146E-1
9.124941664E-2,-1.901495819E0,-1.327080322E1,9.684860229E-2,9.250441665E-2,-5.537493229E-1,-6.568500400E-1,-7.127076387E-1
1.012924167E-1,-2.563269653E0,-1.300809952E1,6.827302551E-1,1.025474166E-1,-7.488613129E-1,-7.702908516E-1,-7.686513662E-1
1.113364167E-1,-2.828518066E0,-1.215128128E1,1.443598022E0,1.125914166E-1,-8.436602354E-1,-8.407058716E-1,-8.041190505E-1
1.213794167E-1,-2.736758881E0,-1.057940002E1,1.806144104E0,1.226344167E-1,-9.540930986E-1,-8.097203374E-1,-8.512488604E-1
1.314234167E-1,-2.728526001E0,-9.285490723E0,1.251996460E0,1.326784167E-1,-1.165678501E0,-6.923780441E-1,-9.039288163E-1
1.414664167E-1,-3.260070648E0,-8.827293549E0,6.545887756E-1,1.427214167E-1,-1.427569032E0,-4.202685356E-1,-9.608901739E-1
1.515104166E-1,-3.983067169E0,-8.785680084E0,6.505471802E-1,1.527654167E-1,-1.633041382E0,-1.929642558E-1,-1.042446852E0
1.615534166E-1,-4.499193878E0,-9.151968384E0,5.671705627E-1,1.628084166E-1,-1.789489627E0,-1.066444591E-1,-1.085447192E0
1.715974166E-1,-5.253325653E0,-9.732910309E0,5.688171387E-3,1.728524166E-1,-1.922406197E0,-8.040885627E-2,-9.686209559E-1
1.816414167E-1,-6.033652954E0,-1.048449738E1,-9.578581238E-1,1.828964166E-1,-2.029115915E0,-3.873062879E-2,-7.899992466E-1
1.916844167E-1,-6.315816193E0,-1.130539032E1,-1.520088959E0,1.929394167E-1,-2.032038927E0,1.123346575E-2,-6.331548095E-1
2.017274167E-1,-6.528823242E0,-1.207538910E1,-1.363364868E0,2.029824167E-1,-1.909203887E0,1.900851876E-1,-4.641756415E-1
2.117714167E-1,-6.922654266E0,-1.254451355E1,-9.279203796E-1,2.130264167E-1,-1.678222060E0,4.628567994E-1,-3.158673942E-1
2.218154166E-1,-7.129973145E0,-1.260393997E1,-6.894662476E-1,2.230704167E-1,-1.430449605E0,7.767593861E-1,-2.111627758E-1
2.318584166E-1,-6.921157379E0,-1.216475327E1,-6.366261292E-1,2.331134166E-1,-1.205939293E0,9.972943664E-1,-2.035370767E-1
2.419024166E-1,-6.275100861E0,-1.131092880E1,-4.345463562E-1,2.431574166E-1,-1.011243463E0,1.057863235E0,-3.316974938E-1
2.519454167E-1,-5.297483826E0,-1.025397675E1,-2.444416809E-1,2.532004167E-1,-8.879231811E-1,9.559903145E-1,-3.240129650E-1
2.619894167E-1,-4.139192505E0,-9.402098236E0,-5.556445312E-1,2.632444167E-1,-8.699718118E-1,7.635827661E-1,-1.620395184E-1
2.720324167E-1,-2.297422485E0,-8.701405334E0,-8.023315430E-1,2.732874167E-1,-8.582512736E-1,4.928011000E-1,-9.422637522E-2
2.820764167E-1,-7.396119690E-1,-8.607251129E0,-5.057981873E-1,2.833314167E-1,-8.408471942E-1,2.732557654E-1,-9.327769279E-2
2.921194166E-1,-8.397537231E-2,-8.632398834E0,-4.873864746E-1,2.933744167E-1,-8.310592771E-1,1.232020780E-1,-5.570395291E-2
3.021634166E-1,-3.285667419E-1,-8.515941010E0,-8.428971863E-1,3.034184166E-1,-8.807453513E-1,-5.210853368E-2,-3.125191852E-2
3.122064167E-1,-5.424719238E-1,-8.199349365E0,-1.654359741E0,3.134614166E-1,-9.981138110E-1,-3.149635792E-1,-1.566736586E-2
3.222504167E-1,-7.767347717E-1,-7.775879974E0,-2.156266022E0,3.235054167E-1,-1.097844958E0,-6.362572908E-1,-5.690716673E-3
3.322934167E-1,-8.196954346E-1,-7.554490356E0,-2.297123108E0,3.335484167E-1,-1.199621201E0,-9.479781985E-1,-1.635028422E-2
3.423374167E-1,-6.959028625E-1,-7.466772766E0,-2.482737122E0,3.435924167E-1,-1.296407580E0,-1.182595372E0,-7.177266479E-2
3.523804166E-1,-3.444337463E-1,-7.438930664E0,-2.560425568E0,3.536354167E-1,-1.391139150E0,-1.313692331E0,-1.731277853E-1
3.624244166E-1,-4.655319214E-2,-7.413633270E0,-2.552641754E0,3.636794167E-1,-1.460171342E0,-1.336731553E0,-2.961689234E-1
3.724674166E-1,1.210981750E-1,-7.354955292E0,-2.469564514E0,3.737224166E-1,-1.496408224E0,-1.293589830E0,-3.902469575E-1
3.825114167E-1,-1.002914429E-2,-7.201374664E0,-2.387984161E0,3.837664166E-1,-1.503068924E0,-1.287148118E0,-4.185690880E-1
3.925544167E-1,-2.710862732E-1,-7.089557190E0,-2.379002838E0,3.938094167E-1,-1.466199875E0,-1.330525994E0,-4.370056093E-1
4.025984167E-1,-5.453160095E-1,-6.748266907E0,-2.275567932E0,4.038534167E-1,-1.357299566E0,-1.301930308E0,-4.704245329E-1
4.126414167E-1,-1.036444702E0,-6.180497589E0,-2.001637573E0,4.138964167E-1,-1.184165597E0,-1.179695249E0,-5.124369264E-1
4.226854166E-1,-1.495390320E0,-5.694907379E0,-1.800006866E0,4.239404167E-1,-9.678094387E-1,-1.038682938E0,-5.413643718E-1
4.327284166E-1,-1.798659668E0,-5.209317169E0,-1.800306244E0,4.339834166E-1,-7.193122506E-1,-8.787890673E-1,-5.601055622E-1
4.427724166E-1,-1.986069946E0,-4.797224121E0,-1.850751343E0,4.440274166E-1,-4.053401351E-1,-6.771717072E-1,-5.788847208E-1
4.528154167E-1,-2.137255554E0,-4.593497772E0,-2.053130493E0,4.540704167E-1,-1.018897071E-1,-5.111691952E-1,-5.548928380E-1
4.628594167E-1,-2.182461548E0,-4.424648895E0,-2.532583466E0,4.641144167E-1,1.526734978E-1,-3.910505176E-1,-5.002770424E-1
4.729024167E-1,-2.030228119E0,-4.348307648E0,-2.954705658E0,4.741574167E-1,3.708697259E-1,-2.856407464E-1,-4.490492940E-1
4.829464167E-1,-1.583556976E0,-4.206702118E0,-3.294499054E0,4.842014167E-1,5.451395512E-1,-1.915298551E-1,-4.221544564E-1
4.929894166E-1,-1.033899994E0,-4.007765808E0,-3.516936493E0,4.942444167E-1,6.853957176E-1,-3.357004747E-2,-3.930532932E-1
5.030334166E-1,-8.611592102E-1,-3.998036041E0,-3.566333771E0,5.042884166E-1,7.426788211E-1,2.389540523E-1,-3.146866858E-1
5.130764167E-1,-1.113384705E0,-4.192481689E0,-3.708538055E0,5.143314166E-1,7.331292033E-1,5.364419222E-1,-1.972881705E-1
5.231204167E-1,-1.589544525E0,-4.750221863E0,-3.831731873E0,5.243754166E-1,7.144458890E-1,7.715048194E-1,-3.343553841E-2
5.331634167E-1,-1.706750793E0,-5.973029022E0,-4.123175812E0,5.344184167E-1,6.395700574E-1,8.272652626E-1,-2.061371226E-3
5.432074167E-1,-1.518741760E0,-7.816445618E0,-4.895719299E0,5.444624167E-1,4.354122281E-1,7.846760154E-1,6.031226739E-2
5.532514167E-1,-2.428699493E0,-1.071846085E1,-5.925877075E0,5.545064167E-1,7.916837186E-2,4.546802938E-1,1.074116006E-1
5.632944166E-1,-2.762205963E0,-1.412477737E1,-6.539151764E0,5.645494167E-1,-1.644476354E-1,3.668094054E-2,4.150053114E-2
5.733384166E-1,-2.685715027E0,-1.710807358E1,-6.322851562E0,5.745934166E-1,-1.977754980E-1,-1.921351999E-1,-1.105481237E-1
5.833814167E-1,-1.905387726E0,-1.765024612E1,-5.962550812E0,5.846364166E-1,-1.718941927E-1,-2.356529832E-1,-2.539024949E-1
5.934254167E-1,-9.562115479E-1,-1.594589035E1,-6.455924835E0,5.946804166E-1,-1.994179636E-1,-2.505970299E-1,-3.342718780E-1
6.034684167E-1,-8.973838806E-1,-1.373693390E1,-7.691455536E0,6.047234167E-1,-3.298087120E-1,-2.515808046E-1,-3.450097442E-1
6.135124167E-1,-6.054908752E-1,-1.145567780E1,-8.861721954E0,6.147674167E-1,-5.201051235E-1,-2.484382838E-1,-3.704605103E-1
6.235554166E-1,6.087840271E-1,-9.274264069E0,-9.371112671E0,6.248104167E-1,-7.665017843E-1,-1.758117527E-1,-3.568967879E-1
6.335994166E-1,1.607357483E0,-7.732769623E0,-9.551188202E0,6.348544167E-1,-1.068991780E0,6.617717445E-2,-2.563909590E-1
6.436418333E-1,1.899250488E0,-7.588619385E0,-8.536448364E0,6.448968333E-1,-1.219486356E0,2.481937557E-1,-2.528314590E-1
6.536858333E-1,2.407144318E0,-8.521329803E0,-6.172713776E0,6.549408333E-1,-1.113456011E0,9.909509867E-2,-3.699921668E-1
6.637288333E-1,2.588866425E0,-1.013317795E1,-4.191433868E0,6.649838333E-1,-9.439527988E-1,-1.139129326E-1,-4.974013865E-1
6.737728333E-1,1.225052490E0,-1.235351074E1,-3.884272614E0,6.750278333E-1,-7.594074011E-1,-2.623983026E-1,-5.368537307E-1
6.838158333E-1,-1.211281128E0,-1.392883484E1,-3.572171631E0,6.850708333E-1,-4.739467204E-1,-3.460884690E-1,-4.488517940E-1
6.938598334E-1,-3.476221161E0,-1.451172272E1,-1.987716522E0,6.951148333E-1,-1.726401299E-1,-2.521097958E-1,-2.872226834E-1
7.039028333E-1,-4.846172333E0,-1.381956207E1,-3.852987671E-1,7.051578333E-1,1.468841434E-1,-3.834779263E-1,-1.603358388E-1
7.139468333E-1,-5.576204224E0,-1.181178726E1,-1.392105103E0,7.152018333E-1,3.543989658E-1,-5.493486524E-1,-3.773962706E-2
7.239898333E-1,-6.151607666E0,-9.925260315E0,-3.802093506E0,7.252448333E-1,4.838131368E-1,-3.041064143E-1,8.152897656E-2
7.340338333E-1,-6.633305969E0,-8.804091797E0,-4.246070251E0,7.352888333E-1,5.114858150E-1,9.730520844E-2,2.424787134E-1
7.440768333E-1,-6.913972321E0,-7.807164917E0,-4.276007996E0,7.453318333E-1,4.667344987E-1,2.991076410E-1,3.830992877E-1
7.541208333E-1,-6.553521881E0,-7.128775635E0,-3.896098022E0,7.553758333E-1,4.747242630E-1,3.522020280E-1,5.192179680E-1
7.641638333E-1,-5.955964508E0,-6.973398743E0,-2.308050385E0,7.654188333E-1,5.663312078E-1,3.333569765E-1,6.090802550E-1
7.742078333E-1,-5.100792847E0,-6.673123169E0,-5.810916138E-1,7.754628333E-1,6.835366488E-1,3.081176579E-1,6.777602434E-1
7.842508333E-1,-4.016148376E0,-6.490502930E0,7.761360168E-1,7.855058333E-1,8.389134407E-1,2.458321601E-1,6.942838430E-1
7.942948333E-1,-2.529140625E0,-6.751110992E0,1.529519348E0,7.955498333E-1,9.591456056E-1,1.613755971E-1,6.643764973E-1
8.043378333E-1,-1.339863739E0,-7.345225525E0,1.238075409E0,8.055928333E-1,1.005759835E0,1.043639407E-1,6.682987213E-1
8.143818333E-1,-6.758445740E-1,-8.084987183E0,2.743794250E-1,8.156368333E-1,9.842101336E-1,1.261552572E-1,6.947026253E-1
8.244248334E-1,-3.725752258E-1,-8.769813080E0,-7.899073792E-1,8.256798333E-1,9.102032781E-1,1.710230708E-1,7.450459003E-1
8.344688333E-1,-5.230123901E-1,-9.272767181E0,-1.394500122E0,8.357238333E-1,8.585762978E-1,1.387601942E-1,8.049313426E-1
8.445118333E-1,-7.929011536E-1,-9.747729492E0,-1.341360626E0,8.457668333E-1,8.656974435E-1,-4.016552866E-2,8.243970275E-1
8.545558333E-1,-7.650590515E-1,-1.023481659E1,-7.388635254E-1,8.558108333E-1,9.447866678E-1,-2.500207722E-1,7.584555745E-1
8.645988333E-1,-7.771838379E-1,-1.067849396E1,5.433700562E-2,8.658538333E-1,1.089148045E0,-3.261121511E-1,6.546302438E-1
8.746428333E-1,-1.328487396E0,-1.088536377E1,2.600093079E-1,8.758978333E-1,1.303545833E0,-1.991874874E-1,5.268251896E-1
8.846858333E-1,-2.114802246E0,-1.053524185E1,-1.381626892E-1,8.859408333E-1,1.547918439E0,4.624199495E-2,3.928668499E-1
8.947298334E-1,-2.747686157E0,-9.866133270E0,-9.857002258E-1,8.959848333E-1,1.710257769E0,3.028990924E-1,2.372927070E-1
9.047728333E-1,-2.868335266E0,-8.971294098E0,-2.218386841E0,9.060278333E-1,1.690245271E0,4.788699150E-1,8.010450751E-2
9.148168333E-1,-2.703228607E0,-8.213420105E0,-3.346590729E0,9.160718333E-1,1.525076747E0,5.865718722E-1,9.129661135E-3
9.248598333E-1,-2.538421326E0,-7.559579773E0,-3.732338562E0,9.261148333E-1,1.344256282E0,6.801781654E-1,-1.374623366E-2
9.349038333E-1,-2.391876068E0,-7.073540497E0,-3.348087616E0,9.361588333E-1,1.205004096E0,7.715437412E-1,1.829452254E-2
9.449478333E-1,-2.334096222E0,-7.027586060E0,-2.833906860E0,9.462028333E-1,1.071331501E0,7.269037962E-1,7.756181806E-2
9.549908333E-1,-2.157762909E0,-7.378157043E0,-2.567161560E0,9.562458333E-1,9.079447985E-1,5.034432411E-1,1.329494417E-1
9.650348334E-1,-1.739532623E0,-7.860753479E0,-2.480042725E0,9.662898333E-1,7.432535291E-1,2.048689127E-1,1.609539837E-1
9.750778333E-1,-1.366059265E0,-8.320746918E0,-2.218237152E0,9.763328334E-1,6.574083567E-1,-2.746819332E-2,1.742881685E-1
9.851218333E-1,-1.053658905E0,-8.402776337E0,-1.649420013E0,9.863768333E-1,6.799839735E-1,-1.558586061E-1,1.989871711E-1
9.951648333E-1,-9.777667236E-1,-8.158184967E0,-9.632469177E-1,9.964198333E-1,7.717251182E-1,-1.842830628E-1,2.556222081E-1
1.005208833E0,-1.322499847E0,-8.218359833E0,-5.453160095E-1,1.006463833E0,8.896390200E-1,-1.111043990E-1,3.493780494E-1
1.015251833E0,-1.782642975E0,-8.568930817E0,-4.773573303E-1,1.016506833E0,1.030522943E0,-1.211123355E-2,4.197169542E-1
1.025295833E0,-1.828597412E0,-8.702453156E0,-4.483177185E-1,1.026550833E0,1.186734676E0,5.793929473E-2,4.472634196E-1
1.035338833E0,-1.506018219E0,-8.526269531E0,-6.167175293E-1,1.036593833E0,1.253184795E0,6.474208087E-2,4.448929429E-1
1.045382833E0,-1.319057007E0,-8.417146454E0,-1.343156891E0,1.046637833E0,1.201816797E0,-4.183605686E-2,4.222760201E-1
1.055425833E0,-1.271755371E0,-8.355325012E0,-2.299667816E0,1.056680833E0,1.087486506E0,-7.707367092E-2,4.442116916E-1
1.065469833E0,-1.642534332E0,-8.375982056E0,-3.056643677E0,1.066724833E0,9.597278237E-1,-3.891035542E-2,4.704272449E-1
1.075512833E0,-1.488205261E0,-8.239166565E0,-3.570674744E0,1.076767833E0,8.200588822E-1,5.008662865E-2,4.889660478E-1
1.085556833E0,-1.216669922E0,-8.147257690E0,-3.729494476E0,1.086811833E0,6.848233938E-1,1.811645776E-1,5.260352492E-1
1.095599833E0,-1.193617859E0,-8.223898315E0,-3.688479767E0,1.096854833E0,5.760785341E-1,3.204732239E-1,5.739156604E-1
1.105643833E0,-1.242117004E0,-8.386160889E0,-3.290307770E0,1.106898833E0,5.358002186E-1,4.158295691E-1,6.448849440E-1
1.115686833E0,-1.511107635E0,-8.579409027E0,-2.518961792E0,1.116941833E0,5.670692325E-1,4.378514886E-1,7.253608704E-1
1.125730833E0,-1.721569977E0,-8.749455414E0,-1.766626282E0,1.126985833E0,6.168982387E-1,3.737432659E-1,7.858363986E-1
1.135773833E0,-1.753303986E0,-9.088949432E0,-1.711989899E0,1.137028833E0,6.177259684E-1,2.312910408E-1,7.895863652E-1
1.145817833E0,-1.336869965E0,-9.684261475E0,-2.107317810E0,1.147072833E0,5.678995252E-1,1.164588630E-1,7.309463024E-1
1.155860833E0,-6.718029785E-1,-1.037312897E1,-2.189347229E0,1.157115833E0,4.866409302E-1,4.405709729E-2,6.229732633E-1
1.165904833E0,1.547781372E-1,-1.090751770E1,-1.977537689E0,1.167159833E0,3.584237397E-1,-9.296727926E-2,4.819818139E-1
1.175947833E0,1.189875641E0,-1.135748199E1,-1.739382935E0,1.177202833E0,2.546629906E-1,-2.501206696E-1,3.228294551E-1
1.185991833E0,1.804347839E0,-1.157737473E1,-1.628613281E0,1.187246833E0,2.310096323E-1,-4.149590135E-1,1.634380966E-1
1.196034833E0,2.031275940E0,-1.135074600E1,-1.702409821E0,1.197289833E0,2.334629297E-1,-6.188852787E-1,2.545279451E-2
1.206078833E0,1.626068573E0,-1.101514389E1,-2.072290649E0,1.207333833E0,2.483417541E-1,-7.253712416E-1,-5.957423896E-2
1.216121833E0,5.486091614E-1,-1.078492264E1,-2.599194946E0,1.217376833E0,2.544294596E-1,-7.172872424E-1,-1.218080521E-1
1.226165833E0,-5.346881104E-1,-1.091739716E1,-2.615361328E0,1.227420833E0,2.014152855E-1,-7.184572816E-1,-1.949470788E-1
1.236208833E0,-1.723815308E0,-1.158530823E1,-2.346370697E0,1.237463833E0,1.550403386E-1,-7.051289082E-1,-2.568773031E-1
1.246252833E0,-3.093616791E0,-1.261845978E1,-2.273771667E0,1.247507833E0,1.407448202E-1,-5.270475745E-1,-2.849387527E-1
1.256295833E0,-3.913012848E0,-1.339339828E1,-1.762285309E0,1.257550833E0,1.741933227E-1,-2.484300733E-1,-2.894331217E-1
1.266339833E0,-4.215833130E0,-1.328637085E1,-1.029409332E0,1.267594833E0,1.694230437E-1,-8.640570939E-2,-3.081097901E-1
1.276382833E0,-3.946393433E0,-1.255963211E1,-9.767189026E-1,1.277637833E0,9.564256668E-2,-5.404962972E-2,-3.798665404E-1
1.286426833E0,-3.297642517E0,-1.214828751E1,-7.611671448E-1,1.287681833E0,-8.112818468E-4,-5.122075230E-2,-4.638879001E-1
1.296469833E0,-2.884501648E0,-1.235889954E1,-3.210823059E-1,1.297724833E0,-1.628699601E-1,-1.166335791E-1,-5.295390487E-1
1.306513833E0,-2.826272736E0,-1.243718674E1,5.867797852E-2,1.307768833E0,-3.838969767E-1,-2.421998829E-1,-5.940390825E-1
1.316556833E0,-2.900218964E0,-1.205143890E1,3.463796997E-1,1.317811833E0,-5.798206925E-1,-3.382129967E-1,-6.643662453E-1
1.326600833E0,-2.819237366E0,-1.150268005E1,7.827223206E-1,1.327855833E0,-7.690193653E-1,-3.491548002E-1,-7.458826303E-1
1.336644833E0,-2.757116547E0,-1.092742630E1,1.016087036E0,1.337899833E0,-9.703740478E-1,-2.752366364E-1,-8.335804939E-1
1.346687833E0,-3.022963715E0,-1.018556900E1,1.026265869E0,1.347942833E0,-1.188251853E0,-1.348137408E-1,-9.004447460E-1
1.356731833E0,-3.563339996E0,-9.457183685E0,1.038390656E0,1.357986833E0,-1.443730474E0,-1.290621050E-2,-9.825292230E-1
1.366774833E0,-3.852837982E0,-8.808732147E0,7.216493225E-1,1.368029833E0,-1.641461611E0,5.674664304E-2,-1.025455713E0
1.376818833E0,-4.355492706E0,-8.601263580E0,1.648072815E-1,1.378073833E0,-1.771152496E0,6.189293414E-2,-1.004748821E0
1.386861833E0,-4.946763153E0,-9.140891418E0,-7.562274170E-1,1.388116833E0,-1.851821184E0,1.996065229E-1,-1.009025812E0
1.396905833E0,-5.728437653E0,-1.020487885E1,-1.796414337E0,1.398160833E0,-1.856504321E0,4.336608350E-1,-9.373429418E-1
1.406948833E0,-6.527775421E0,-1.146421005E1,-2.288590851E0,1.408203833E0,-1.747681499E0,7.144791484E-1,-7.903732061E-1
1.416992833E0,-7.171885986E0,-1.239003479E1,-1.973795471E0,1.418247833E0,-1.519429684E0,1.060536981E0,-5.783411264E-1
1.427035833E0,-7.645650787E0,-1.279539185E1,-1.286275177E0,1.428290833E0,-1.252590775E0,1.415183663E0,-3.627020121E-1
1.437079833E0,-7.532336426E0,-1.258956985E1,-8.150550842E-1,1.438334833E0,-1.059105515E0,1.588585377E0,-2.563601434E-1
1.447122833E0,-6.964716797E0,-1.177855637E1,-5.388793945E-1,1.448377833E0,-9.143037796E-1,1.421674967E0,-2.562362850E-1
1.457166833E0,-6.255042572E0,-1.045261368E1,-1.960922241E-2,1.458421833E0,-8.177157640E-1,1.003885984E0,-9.308331460E-2
1.467209833E0,-5.728287964E0,-9.495503998E0,2.625540161E-1,1.468464833E0,-8.117009401E-1,6.272320747E-1,2.031935155E-1
1.477253833E0,-4.255201263E0,-8.623866577E0,-7.738906860E-2,1.478508833E0,-8.611038923E-1,3.057627082E-1,4.103797078E-1
1.487296833E0,-2.607427826E0,-8.024812317E0,-5.664221191E-1,1.488551833E0,-8.555372357E-1,1.282649487E-1,4.698497653E-1
1.497340833E0,-1.022373962E0,-8.238717499E0,-7.470964050E-1,1.498595833E0,-8.470175266E-1,2.028761245E-2,5.103604198E-1
1.507383833E0,-3.944297791E-1,-8.471633148E0,-1.545386353E0,1.508638833E0,-8.813939691E-1,-7.237692177E-2,5.027394295E-1
1.517427833E0,5.822891235E-2,-8.393944702E0,-2.297572174E0,1.518682833E0,-9.873459935E-1,-1.692768484E-1,4.838046432E-1
1.527470833E0,1.978884888E-1,-8.146658936E0,-2.864443359E0,1.528725833E0,-1.108639836E0,-3.311878443E-1,4.063161016E-1
1.537514833E0,4.469705200E-1,-7.838749237E0,-2.850671997E0,1.538769833E0,-1.217827559E0,-4.897891879E-1,3.427879810E-1
1.547557833E0,1.806742859E-1,-7.571105804E0,-2.714006195E0,1.548812833E0,-1.328125477E0,-6.676928401E-1,2.628066838E-1
1.557601833E0,1.484912109E-1,-7.474556580E0,-2.692600708E0,1.558856833E0,-1.438115358E0,-8.893253207E-1,1.451186687E-1
1.567644833E0,5.595364380E-1,-7.513924713E0,-2.709665222E0,1.568899833E0,-1.539486408E0,-1.105530977E0,-3.448022902E-2
1.577688833E0,8.653504944E-1,-7.532336426E0,-2.824027405E0,1.578943833E0,-1.602806091E0,-1.205450177E0,-1.820350587E-1
1.587731833E0,4.761598206E-1,-7.409441986E0,-2.874622192E0,1.588986833E0,-1.598162532E0,-1.137961388E0,-2.781605422E-1
1.597775833E0,-9.370513916E-2,-7.124734039E0,-2.809657288E0,1.599030833E0,-1.519013166E0,-1.000603557E0,-3.693820536E-1
1.607818833E0,-5.466632080E-1,-6.757547607E0,-2.707868958E0,1.609073833E0,-1.366339922E0,-8.440930843E-1,-4.493699670E-1
1.617862833E0,-1.028660889E0,-6.467001801E0,-2.523602142E0,1.619117833E0,-1.150241017E0,-6.785454154E-1,-5.179069638E-1
1.627905833E0,-1.521136780E0,-6.301296387E0,-2.307601318E0,1.629160833E0,-9.224613309E-1,-5.364831090E-1,-5.808936954E-1
1.637949833E0,-1.865570526E0,-6.103557587E0,-2.314936066E0,1.639204833E0,-6.829270124E-1,-4.046031535E-1,-6.111884713E-1
1.647992708E0,-2.274071045E0,-5.793851624E0,-2.270628204E0,1.649247708E0,-4.161693752E-1,-2.768116891E-1,-6.162006259E-1
1.658036708E0,-2.626587982E0,-5.478607178E0,-2.286495209E0,1.659291708E0,-1.301903427E-1,-2.200732827E-1,-5.955550075E-1
1.668079708E0,-2.698139191E0,-5.041516113E0,-2.414029999E0,1.669334708E0,1.648701131E-1,-2.397009581E-1,-5.644824505E-1
1.678123708E0,-2.502046967E0,-4.569098511E0,-2.577190704E0,1.679378708E0,4.743193090E-1,-2.326553017E-1,-5.116978288E-1
1.688166708E0,-2.216740265E0,-3.936064911E0,-2.724185028E0,1.689421708E0,7.759161592E-1,-1.538867652E-1,-4.484261870E-1
1.698210708E0,-1.762884064E0,-3.252735901E0,-2.977458344E0,1.699465708E0,9.921286106E-1,-2.057717927E-2,-4.173332453E-1
1.708253708E0,-1.200353851E0,-3.048859863E0,-3.511398010E0,1.709508708E0,1.148743749E0,1.776197553E-1,-3.782966733E-1
1.718297708E0,-1.248852997E0,-3.445984039E0,-4.123175812E0,1.719552708E0,1.228951454E0,4.005715847E-1,-3.007747233E-1
1.728340708E0,-1.539548492E0,-4.249363403E0,-5.103187866E0,1.729595708E0,1.166624784E0,6.014236808E-1,-2.239306122E-1
1.738384708E0,-1.595083008E0,-5.196743317E0,-6.198460236E0,1.739639708E0,9.855130315E-1,8.137702942E-1,-1.830958277E-1
1.748428708E0,-1.622925110E0,-6.279591522E0,-6.681954803E0,1.749683708E0,7.262542248E-1,1.096500516E0,-1.409888715E-1
1.758471708E0,-1.606159973E0,-7.985743561E0,-6.628815308E0,1.759726708E0,3.867433071E-1,1.133395672E0,-1.155636758E-1
1.768515708E0,-1.520238647E0,-1.098191299E1,-6.509962463E0,1.769770708E0,9.849103540E-2,8.286478519E-1,-5.322564393E-2
1.778558708E0,-2.311493225E0,-1.518741760E1,-5.871989136E0,1.779813708E0,-1.445208043E-1,3.783168793E-1,-6.263618916E-2
1.788602708E0,-2.477797394E0,-1.835378311E1,-5.893095245E0,1.789857708E0,-2.896795273E-1,5.260188878E-2,-2.096357793E-1
1.798645708E0,-1.852248230E0,-1.800051773E1,-6.174959106E0,1.799900708E0,-3.088958263E-1,-1.507656127E-1,-2.877473533E-1
1.808689708E0,-1.989662476E0,-1.550475769E1,-7.081024933E0,1.809944708E0,-3.773132861E-1,-3.249172270E-1,-2.197574377E-1
1.818732708E0,-2.165995789E0,-1.226669128E1,-8.690777435E0,1.819987708E0,-4.983340204E-1,-4.628686905E-1,-1.324345171E-1
1.828776708E0,-9.659413147E-1,-9.200168152E0,-8.965007172E0,1.830031708E0,-5.445712805E-1,-5.526840091E-1,-9.022387862E-2
1.838819708E0,4.921765137E-1,-6.785090332E0,-8.576115875E0,1.840074708E0,-7.089599967E-1,-2.932175398E-1,-3.504078090E-2
1.848863708E0,1.043929138E0,-6.186185760E0,-8.059989166E0,1.850118708E0,-8.228718638E-1,8.806430548E-2,-1.666629873E-2
1.858906708E0,1.634151764E0,-7.208410034E0,-5.914201355E0,1.860161708E0,-7.505433559E-1,1.383490562E-1,-6.728713214E-2
1.868950708E0,2.037712555E0,-8.820707245E0,-4.046984253E0,1.870205708E0,-5.825903416E-1,-1.002817228E-2,-1.641627997E-1
1.878993708E0,1.563947754E0,-1.066322571E1,-4.095184021E0,1.880248708E0,-5.347136259E-1,-5.882341042E-2,-2.207914591E-1
1.889037708E0,-4.287084961E-1,-1.216684891E1,-4.871170349E0,1.890292708E0,-6.127604842E-1,8.835965395E-2,-2.054082453E-1
1.899080708E0,-2.920426941E0,-1.339279953E1,-3.743116150E0,1.900335708E0,-5.824081302E-1,3.453890383E-1,-1.732993126E-1
1.909124708E0,-4.995411987E0,-1.465317856E1,-1.399739227E0,1.910379708E0,-2.479225695E-1,2.803205550E-1,-1.567203403E-1
1.919167708E0,-6.889872437E0,-1.542407547E1,-1.124162292E0,1.920422708E0,7.260829955E-2,5.439316109E-2,-5.784755945E-2
1.929211708E0,-7.941585388E0,-1.491483444E1,-2.403551788E0,1.930466708E0,2.761827409E-1,-1.424944252E-1,3.670601919E-2
1.939254708E0,-7.048392792E0,-1.244182709E1,-3.150348816E0,1.940509708E0,3.238472044E-1,-4.718948156E-2,1.800536066E-1
1.949298708E0,-6.570436707E0,-9.690847778E0,-3.092568970E0,1.950553708E0,2.959506512E-1,2.278597504E-1,3.541796803E-1
1.959341708E0,-6.818620605E0,-7.769293671E0,-2.471061401E0,1.960596708E0,3.380019665E-1,4.258223474E-1,5.324831009E-1
1.969385708E0,-6.576573944E0,-6.771318970E0,-1.213825836E0,1.970640708E0,4.994866848E-1,3.984159529E-1,6.695092916E-1
1.979428708E0,-5.225633240E0,-6.086942139E0,2.436932373E-1,1.980683708E0,7.284303904E-1,3.387345076E-1,7.458520532E-1
1.989472708E0,-3.687431946E0,-5.656886444E0,1.267115021E0,1.990727708E0,9.473864436E-1,3.371781409E-1,7.480925322E-1
1.999515708E0,-2.196083221E0,-5.748196564E0,1.515448608E0,2.000770708E0,1.105629325E0,3.673232794E-1,7.301090360E-1
2.009559708E0,-1.333576813E0,-6.514153748E0,1.043629761E0,2.010814708E0,1.162890434E0,4.542170167E-1,7.433927059E-1
2.019602708E0,-9.383985901E-1,-7.513625336E0,1.091230774E-1,2.020857708E0,1.140071988E0,4.924520254E-1,7.652503252E-1
2.029646708E0,-7.229965210E-1,-8.516390076E0,-7.240443420E-1,2.030901708E0,1.109611392E0,4.752433002E-1,7.756423354E-1
2.039689708E0,-6.840774536E-1,-9.513167267E0,-8.500822449E-1,2.040944708E0,1.123724580E0,3.579163849E-1,7.646034956E-1
2.049733708E0,-6.432124329E-1,-1.041459274E1,-4.158352661E-1,2.050988708E0,1.152066708E0,1.491694450E-1,7.458715439E-1
2.059776708E0,-6.572831726E-1,-1.129326553E1,-5.912704468E-2,2.061031708E0,1.186126947E0,-1.222503558E-2,6.813061237E-1
2.069820708E0,-8.358618164E-1,-1.190579178E1,1.151106262E-1,2.071075708E0,1.289254546E0,8.119270951E-2,5.651882291E-1
2.079863708E0,-1.579066315E0,-1.189471481E1,-2.273771667E-1,2.081118708E0,1.449725389E0,3.245632946E-1,4.215026796E-1
2.089907708E0,-2.291734314E0,-1.108534790E1,-9.081614685E-1,2.091162708E0,1.604116917E0,6.046275496E-1,2.758406699E-1
2.099950708E0,-2.933599548E0,-9.918674011E0,-1.719025269E0,2.101205708E0,1.667587161E0,8.284625411E-1,1.794800460E-1
2.109994708E0,-3.553460541E0,-8.759933624E0,-2.555186462E0,2.111249708E0,1.607830048E0,9.844214320E-1,1.501639634E-1
2.120037708E0,-4.070635071E0,-7.798782349E0,-3.065774689E0,2.121292708E0,1.454363585E0,1.073693871E0,1.711459458E-1
2.130081708E0,-4.273762665E0,-7.185956726E0,-3.129841461E0,2.131336708E0,1.311734080E0,1.173504591E0,2.274276614E-1
2.140124708E0,-3.991898804E0,-6.718628540E0,-2.512375488E0,2.141379708E0,1.213458896E0,1.244039059E0,3.006086648E-1
2.150168708E0,-3.173700256E0,-6.634353790E0,-1.860930176E0,2.151423708E0,1.135777116E0,1.155367017E0,3.106134236E-1
2.160211708E0,-2.080373840E0,-6.950945435E0,-1.567689972E0,2.161466708E0,1.035726666E0,9.314337373E-1,3.057115972E-1
2.170255708E0,-1.698966980E0,-7.750283203E0,-1.605860596E0,2.171510708E0,9.225023389E-1,6.810714602E-1,3.180733323E-1
2.180298708E0,-1.440304871E0,-8.378377075E0,-1.595981140E0,2.181553708E0,8.780416846E-1,4.877323210E-1,2.859551013E-1
2.190342708E0,-8.198451233E-1,-8.377029877E0,-1.103056183E0,2.191597708E0,9.347668886E-1,4.353894591E-1,2.759487331E-1
2.200385708E0,-7.937992859E-1,-8.327333221E0,-6.695576477E-1,2.201640708E0,1.006688476E0,4.278572500E-1,3.231388927E-1
2.210429708E0,-1.134790192E0,-8.489595795E0,-7.150630188E-1,2.211684708E0,1.097013831E0,4.638784826E-1,3.528420329E-1
2.220473708E0,-1.044527893E0,-8.440048828E0,-7.577243042E-1,2.221728708E0,1.219597578E0,6.187807322E-1,3.742197752E-1
2.230516708E0,-1.009500732E0,-8.571924591E0,-7.235952759E-1,2.231771708E0,1.344838738E0,7.788834572E-1,4.297135770E-1
2.240559708E0,-1.214574280E0,-9.101523285E0,-1.089584198E0,2.241814708E0,1.390296221E0,7.925369740E-1,4.671560228E-1
2.250603708E0,-1.185384979E0,-9.376651154E0,-1.765578461E0,2.251858708E0,1.326334953E0,6.849796772E-1,4.897726774E-1
2.260647708E0,-1.400487671E0,-9.251212006E0,-2.584375763E0,2.261902708E0,1.202898145E0,5.699247122E-1,5.316868424E-1
2.270690708E0,-1.636696472E0,-8.904083862E0,-3.247047729E0,2.271945708E0,1.033115625E0,4.971814156E-1,5.859068036E-1
2.280734708E0,-1.614392853E0,-8.499325562E0,-3.751798096E0,2.281989708E0,8.562822342E-1,4.632058740E-1,6.461597681E-1
2.290777708E0,-1.464704132E0,-8.148455200E0,-3.810027008E0,2.292032708E0,7.340306640E-1,5.033554435E-1,7.263465524E-1
2.300821708E0,-1.167422333E0,-7.761509857E0,-3.398532715E0,2.302076708E0,6.778094769E-1,5.108501315E-1,7.973290682E-1
2.310864708E0,-6.289920044E-1,-7.554939423E0,-2.840792542E0,2.312119708E0,6.740697026E-1,4.999422431E-1,8.461481333E-1
2.320908708E0,-4.150868225E-1,-7.508984985E0,-2.190544739E0,2.322163708E0,6.989923716E-1,4.894469678E-1,8.853195310E-1
2.330951708E0,-3.233276367E-1,-7.801776123E0,-1.426084442E0,2.332206708E0,7.121517658E-1,3.529036343E-1,9.053432345E-1
2.340995708E0,-3.887416077E-1,-8.312963104E0,-1.195713501E0,2.342250708E0,6.708291173E-1,1.688597798E-1,8.990435004E-1
2.351038708E0,-7.402107239E-1,-8.962013397E0,-1.444047089E0,2.352293708E0,6.205616593E-1,4.762004595E-3,8.824139833E-1
2.361082708E0,-8.098159790E-1,-9.872869263E0,-1.832639008E0,2.362337708E0,5.352140069E-1,-1.053322703E-1,7.997300029E-1
2.371125708E0,-4.381388855E-1,-1.071950867E1,-2.175725555E0,2.372380708E0,4.340518117E-1,-1.862391829E-1,6.722286940E-1
2.381169708E0,-5.089416504E-3,-1.143831390E1,-2.261347504E0,2.382424708E0,3.358666599E-1,-2.557308972E-1,4.959146678E-1
2.391212708E0,2.550695801E-1,-1.189681046E1,-2.512674866E0,2.392467708E0,2.814209163E-1,-2.743495703E-1,2.867745161E-1
2.401256708E0,2.227368164E-1,-1.193288544E1,-2.853216705E0,2.402511708E0,2.528353631E-1,-2.280199230E-1,9.276562929E-2
2.411299708E0,-2.266287231E-1,-1.163784897E1,-3.160078583E0,2.412554708E0,2.251063585E-1,-1.657106876E-1,-5.189295858E-2
2.421343708E0,-1.071471863E0,-1.120464981E1,-3.398682404E0,2.422598708E0,2.110675126E-1,-9.953033179E-2,-1.293166429E-1
2.431386708E0,-1.928290100E0,-1.077953384E1,-3.310366058E0,2.432641708E0,2.044409364E-1,-2.655910328E-2,-1.740779132E-1
2.441430708E0,-2.392175446E0,-1.067714676E1,-2.521506500E0,2.442685708E0,1.788817793E-1,-1.983195916E-2,-2.094012946E-1
2.451473708E0,-2.684816895E0,-1.112097382E1,-1.755998383E0,2.452728708E0,1.607757807E-1,-1.028246246E-3,-2.337288111E-1
2.461517708E0,-3.270997925E0,-1.211610443E1,-1.532662811E0,2.462772708E0,1.380004287E-1,6.765148044E-2,-2.317649871E-1
2.471560708E0,-3.403771820E0,-1.285227356E1,-1.441053314E0,2.472815708E0,5.591665581E-2,9.815724194E-2,-2.550798357E-1
2.481604708E0,-2.971171417E0,-1.286394928E1,-1.306183777E0,2.482859708E0,-7.037204504E-2,4.627060890E-2,-3.316776752E-1
2.491647708E0,-2.396965485E0,-1.245814316E1,-8.449928284E-1,2.492902708E0,-2.471602708E-1,-9.066403657E-2,-4.308359325E-1
2.501691708E0,-2.142045593E0,-1.222417969E1,-3.014730835E-1,2.502946708E0,-4.877949655E-1,-2.562383413E-1,-5.172371268E-1
2.511734708E0,-2.187700653E0,-1.221280334E1,2.332150269E-1,2.512989708E0,-7.414808869E-1,-3.994904459E-1,-5.937155485E-1
2.521778708E0,-1.916315002E0,-1.161210251E1,8.635542297E-1,2.523033708E0,-1.005818486E0,-4.329091311E-1,-7.195738554E-1
2.531821708E0,-1.917811890E0,-1.077833633E1,1.146465912E0,2.533076708E0,-1.234735131E0,-3.767916262E-1,-8.704953194E-1
2.541865708E0,-2.259551239E0,-1.013168106E1,1.443897400E0,2.543120708E0,-1.448394895E0,-2.985633910E-1,-1.030294299E0
2.551908708E0,-2.601140900E0,-9.690099335E0,1.450334015E0,2.553163708E0,-1.728515506E0,-1.567666084E-1,-1.171577930E0
2.561952708E0,-3.315754852E0,-9.274862823E0,8.777746582E-1,2.563207708E0,-1.963980198E0,-5.568554252E-2,-1.222006917E0
2.571995708E0,-4.350852356E0,-9.314979401E0,-7.364685059E-2,2.573250708E0,-2.193196774E0,-3.044977598E-2,-1.249299526E0
2.582039708E0,-5.187761993E0,-9.559271393E0,-1.126257935E0,2.583294708E0,-2.317128658E0,1.770523563E-2,-1.238077402E0
2.592082708E0,-6.003415833E0,-1.067280579E1,-1.623972931E0,2.593337708E0,-2.247012854E0,1.356389821E-1,-1.165744662E0
2.602126708E0,-6.745422821E0,-1.198931808E1,-1.443897400E0,2.603381708E0,-1.963235378E0,4.504837394E-1,-9.605220556E-1
2.612169708E0,-7.758216705E0,-1.299672318E1,-9.024732971E-1,2.613424708E0,-1.561129928E0,9.277663231E-1,-6.562900543E-1
2.622213708E0,-8.112829285E0,-1.363559464E1,-6.710545349E-1,2.623468708E0,-1.171571255E0,1.394807816E0,-4.114414155E-1
2.632256708E0,-7.405699768E0,-1.368050125E1,-7.409591675E-1,2.633511708E0,-9.240259528E-1,1.535722613E0,-3.889959753E-1
2.642300708E0,-5.749693451E0,-1.291619064E1,-9.949809265E-1,2.643555708E0,-7.745272517E-1,1.274663329E0,-3.777204156E-1
2.652344292E0,-4.456532593E0,-1.183873123E1,-2.466870117E-1,2.653599292E0,-6.426811218E-1,1.073795676E0,-1.650954932E-1
2.662388292E0,-2.950065308E0,-1.057595718E1,1.621128845E-1,2.663643292E0,-5.838633776E-1,1.065889120E0,3.478513286E-2
2.672431292E0,-1.436263275E0,-9.767039337E0,-5.577401733E-1,2.673686292E0,-5.910705328E-1,8.372414708E-1,1.737532914E-1
2.682475292E0,-7.035369873E-1,-1.019245468E1,-1.164877625E0,2.683730292E0,-6.492472887E-1,4.724573493E-1,2.313007414E-1
2.692518292E0,-1.017883301E-1,-1.047087570E1,-1.560953979E0,2.693773292E0,-7.704749107E-1,5.506600812E-2,2.478147596E-1
2.702562292E0,2.377056885E-1,-9.996212769E0,-2.160008240E0,2.703817292E0,-1.003830791E0,-3.298819363E-1,2.882143557E-1
2.712605292E0,-4.146377563E-2,-9.397457886E0,-2.905009003E0,2.713860292E0,-1.243346930E0,-6.375946403E-1,3.083959222E-1
2.722649292E0,-2.050735474E-1,-8.625064087E0,-2.935395813E0,2.723904292E0,-1.443460584E0,-8.886787891E-1,3.262073994E-1
2.732692292E0,-3.281176758E-1,-8.120762787E0,-2.885699158E0,2.733947292E0,-1.655076861E0,-1.076060414E0,2.814936638E-1
2.742736292E0,2.896476746E-1,-7.764054565E0,-3.258723450E0,2.743991292E0,-1.860488892E0,-1.304589510E0,1.429967880E-1
2.752779292E0,9.665400696E-1,-7.541916504E0,-3.313509521E0,2.754034292E0,-1.989107013E0,-1.510598779E0,-5.441581458E-2
2.762823292E0,1.198108521E0,-7.400610352E0,-2.899470520E0,2.764078292E0,-2.036290884E0,-1.664853573E0,-2.390922010E-1
2.772867292E0,1.033750305E0,-7.162006531E0,-2.502496033E0,2.774122292E0,-2.013648748E0,-1.765223622E0,-3.618611991E-1
2.782910292E0,6.015989685E-1,-6.855444031E0,-2.247725830E0,2.784165292E0,-1.965231419E0,-1.779633641E0,-4.136455655E-1
2.792954292E0,-3.622467041E-2,-6.359225922E0,-2.062111816E0,2.794209292E0,-1.843607187E0,-1.701510549E0,-4.236873388E-1
2.802997292E0,-7.276368713E-1,-5.752687225E0,-1.608105927E0,2.804252292E0,-1.642156124E0,-1.499216557E0,-4.595294893E-1
2.813041292E0,-1.369202728E0,-5.075046387E0,-1.073866882E0,2.814296292E0,-1.349340081E0,-1.248567343E0,-5.187072754E-1
2.823084292E0,-1.903441772E0,-4.496649170E0,-8.571176147E-1,2.824339292E0,-1.011217713E0,-1.003356338E0,-5.797631741E-1
2.833128292E0,-2.357148285E0,-4.165388031E0,-1.004561005E0,2.834383292E0,-6.620622277E-1,-8.107136488E-1,-6.221974492E-1
2.843171292E0,-2.749183044E0,-4.213288422E0,-1.468146973E0,2.844426292E0,-3.233286440E-1,-6.960621476E-1,-6.292340755E-1
2.853215292E0,-3.020868073E0,-4.390070801E0,-2.232008514E0,2.854470292E0,3.870493732E-3,-6.506946087E-1,-6.113282442E-1
2.863258292E0,-2.923570404E0,-4.488266602E0,-2.939886475E0,2.864513292E0,3.178089559E-1,-6.053159237E-1,-5.797852278E-1
2.873302292E0,-2.559078369E0,-4.385280762E0,-3.527115326E0,2.874557292E0,5.251869559E-1,-5.853472948E-1,-5.312456489E-1
2.883345292E0,-1.861828308E0,-3.973487091E0,-4.139641571E0,2.884600292E0,7.025052905E-1,-4.872729182E-1,-5.267590284E-1
2.893389292E0,-1.004111938E0,-3.511248322E0,-4.121678925E0,2.894644292E0,8.838215470E-1,-2.664835155E-1,-5.423213840E-1
2.903432292E0,-5.749543762E-1,-3.251837769E0,-4.012256470E0,2.904687292E0,9.376479983E-1,1.169994175E-1,-4.704067707E-1
2.913476292E0,-1.132245483E0,-3.526666260E0,-4.058510284E0,2.914731292E0,9.100745916E-1,4.819246233E-1,-2.736729681E-1
2.923519292E0,-1.764979706E0,-4.098926239E0,-4.476740570E0,2.924774292E0,8.855566978E-1,8.168898225E-1,-1.573631167E-1
2.933563292E0,-1.560205536E0,-5.143454132E0,-4.769831085E0,2.934818292E0,7.762668133E-1,9.972852468E-1,-1.232562512E-1
2.943606292E0,-1.007405090E0,-6.962022400E0,-5.334606628E0,2.944861292E0,5.684704781E-1,1.079032779E0,-4.265221953E-2
2.953650292E0,-1.792522430E0,-9.463769989E0,-5.099295959E0,2.954905292E0,3.829320967E-1,1.080965519E0,1.022573113E-1
2.963693292E0,-3.213218079E0,-1.270662643E1,-5.178032227E0,2.964948292E0,1.598636210E-1,6.403089762E-1,1.740675867E-1
2.973737292E0,-3.307671661E0,-1.666529434E1,-5.994883575E0,2.974992292E0,6.440793723E-2,-3.025130928E-2,-1.813306101E-2
2.983780292E0,-2.365530853E0,-1.883727768E1,-5.744604034E0,2.985035292E0,8.903712034E-2,-4.064326584E-1,-1.940564215E-1
2.993824292E0,-1.735640717E0,-1.671948166E1,-5.564528503E0,2.995079292E0,1.944608614E-2,-6.262474060E-1,-2.239792794E-1
3.003867292E0,-1.794019318E0,-1.385399048E1,-7.457941132E0,3.005122292E0,-2.504234612E-1,-8.621744514E-1,-1.716236621E-1
3.013911292E0,-1.071471863E0,-1.133652557E1,-9.415719910E0,3.015166292E0,-5.728458166E-1,-9.793025851E-1,-1.547569633E-1
3.023954292E0,9.126521301E-1,-9.000782776E0,-1.018691620E1,3.025209292E0,-8.531645536E-1,-9.304823279E-1,-1.592057794E-1
3.033998292E0,2.533032532E0,-7.392976227E0,-1.017164795E1,3.035253292E0,-1.103376865E0,-5.948807001E-1,-1.323822290E-1
3.044041292E0,3.139421539E0,-6.891968079E0,-9.242380371E0,3.045296292E0,-1.241517425E0,-9.900941700E-2,-1.967167407E-1
3.054085292E0,3.426075439E0,-7.930209045E0,-6.756649475E0,3.055340292E0,-1.068494439E0,1.345588416E-1,-3.503324091E-1
3.064128292E0,3.184627533E0,-9.410331116E0,-3.701053619E0,3.065383292E0,-8.721044064E-1,9.932575375E-2,-4.928663969E-1
3.074172292E0,1.335373077E0,-1.170266418E1,-4.007616119E0,3.075427292E0,-8.006602526E-1,3.023973107E-2,-5.078225732E-1
3.084215292E0,-1.538051605E0,-1.454809708E1,-4.792733459E0,3.085470292E0,-6.955999136E-1,-2.081013843E-2,-4.142580032E-1
3.094259292E0,-3.865711212E0,-1.588541611E1,-2.884651337E0,3.095514292E0,-4.501976669E-1,-2.043819427E-1,-3.310726881E-1
3.104302292E0,-5.291496277E0,-1.512035706E1,-9.391470337E-1,3.105557292E0,-2.097389549E-1,-4.147165418E-1,-2.442888021E-1
3.114346292E0,-6.753206635E0,-1.438972641E1,-1.619631958E0,3.115601292E0,-1.626884565E-2,-5.538602471E-1,-9.170241654E-2
3.124389292E0,-7.574099579E0,-1.351749023E1,-2.779120789E0,3.125644292E0,2.059333324E-1,-6.303665042E-1,5.504148453E-2
3.134433292E0,-6.892417145E0,-1.112411728E1,-3.092419281E0,3.135688292E0,2.828483284E-1,-4.852662385E-1,1.683771610E-1
3.144476292E0,-6.206992493E0,-8.616082764E0,-3.432961121E0,3.145731292E0,2.645888925E-1,-1.963550597E-1,2.950235307E-1
3.154520292E0,-6.167774048E0,-7.068900146E0,-3.098107452E0,3.155775292E0,3.265045881E-1,-4.929972813E-2,4.171772301E-1
3.164563292E0,-5.712121582E0,-6.340065765E0,-1.535806274E0,3.165818292E0,5.420952439E-1,-9.282057732E-2,5.390277505E-1
3.174607292E0,-4.659360809E0,-5.749992828E0,4.935237122E-1,3.175862292E0,8.095546365E-1,-1.845845729E-1,5.831174850E-1
3.184650292E0,-3.154540100E0,-5.219346313E0,1.741029510E0,3.185905292E0,1.035216928E0,-3.117469847E-1,5.650898218E-1
3.194694292E0,-1.886976013E0,-5.551355896E0,2.036664734E0,3.195949292E0,1.147947788E0,-4.156663418E-1,5.539954901E-1
3.204737292E0,-1.229393463E0,-6.647077332E0,1.241218872E0,3.205992292E0,1.146903396E0,-4.527135789E-1,5.927841663E-1
3.214781292E0,-1.087787933E0,-7.861950989E0,-2.305206299E-2,3.216036292E0,1.051660180E0,-4.138185382E-1,6.387175918E-1
3.224824292E0,-9.726773071E-1,-8.693771210E0,-1.215322723E0,3.226079292E0,9.980205894E-1,-3.366201520E-1,6.850382090E-1
3.234868292E0,-9.198371887E-1,-9.386530609E0,-1.337019653E0,3.236123292E0,1.019418240E0,-3.033885360E-1,7.069677114E-1
3.244911292E0,-9.364526367E-1,-1.004605911E1,-9.843530273E-1,3.246166292E0,1.070415139E0,-3.634588122E-1,6.666860580E-1
3.254955292E0,-8.665480042E-1,-1.076531342E1,-5.023553467E-1,3.256210292E0,1.184236050E0,-4.428921938E-1,5.205870867E-1
3.264998292E0,-8.860075378E-1,-1.139265884E1,-1.378633118E-1,3.266253292E0,1.332310796E0,-3.768681884E-1,3.187314272E-1
3.275042292E0,-1.489253082E0,-1.161030624E1,-4.272116089E-1,3.276297292E0,1.476182699E0,-1.564073116E-1,1.014437452E-1
3.285085292E0,-2.417622528E0,-1.083896027E1,-1.129700775E0,3.286340292E0,1.635545731E0,1.063518822E-1,-7.698777318E-2
3.295129292E0,-3.122656403E0,-9.463620300E0,-1.528770905E0,3.296384292E0,1.749725580E0,3.364128470E-1,-1.843826026E-1
3.305172292E0,-3.581302643E0,-8.165968781E0,-2.127675476E0,3.306427292E0,1.714018464E0,4.835586250E-1,-1.978067905E-1
3.315216292E0,-3.790268097E0,-7.161557465E0,-2.862497406E0,3.316471292E0,1.552804708E0,5.430889726E-1,-1.674082726E-1
3.325259292E0,-3.692221985E0,-6.349346466E0,-3.087180176E0,3.326514292E0,1.355396032E0,5.285081267E-1,-1.127743274E-1
3.335303292E0,-3.370989990E0,-5.925877075E0,-2.815794525E0,3.336558292E0,1.203908801E0,4.737462997E-1,-4.268583283E-2
3.345346292E0,-2.906206512E0,-5.918392639E0,-2.393522644E0,3.346601292E0,1.068023443E0,3.079898059E-1,4.140108079E-2
3.355390292E0,-2.563269653E0,-6.507118378E0,-2.135908356E0,3.356645292E0,9.372383952E-1,8.382384479E-2,1.241710633E-1
3.365434292E0,-2.089355164E0,-7.219636688E0,-2.017803955E0,3.366689292E0,8.302707076E-1,-1.536462307E-1,1.555702686E-1
3.375477292E0,-1.280437317E0,-7.937843170E0,-1.725312195E0,3.376732292E0,8.079289794E-1,-2.996409237E-1,1.498613209E-1
3.385521292E0,-6.295907593E-1,-8.411009216E0,-1.060245209E0,3.386776292E0,8.727161884E-1,-3.116975725E-1,1.495697051E-1
3.395564292E0,-5.191204834E-1,-8.736582184E0,-4.727169800E-1,3.396819292E0,9.836446643E-1,-2.195032537E-1,1.641744375E-1
3.405608292E0,-7.259902954E-1,-8.916807404E0,1.002914429E-2,3.406863292E0,1.126972556E0,-5.704482645E-2,2.248021066E-1
3.415651292E0,-1.122366028E0,-9.063652039E0,1.296304321E-1,3.416906292E0,1.258043170E0,9.841678292E-2,2.915253341E-1
3.425694292E0,-1.343306580E0,-9.035510559E0,-2.965333557E-1,3.426949292E0,1.327807069E0,1.865221411E-1,3.467653990E-1
3.435738292E0,-1.471589813E0,-9.074130249E0,-1.118923187E0,3.436993292E0,1.289825916E0,1.763858646E-1,3.760716021E-1
3.445782292E0,-1.605710907E0,-9.113498383E0,-2.038610687E0,3.447037292E0,1.159553885E0,1.448753476E-1,4.230902493E-1
3.455825292E0,-2.035317535E0,-9.151070251E0,-2.714455261E0,3.457080292E0,9.933394194E-1,1.178423166E-1,4.955334961E-1
3.465869292E0,-2.488724670E0,-9.153914337E0,-3.013832703E0,3.467124292E0,8.162019253E-1,1.145125628E-1,5.830183029E-1
3.475912292E0,-2.624492340E0,-8.964109039E0,-3.082240448E0,3.477167292E0,6.675388813E-1,1.110467762E-1,6.679226160E-1
3.485956292E0,-2.352807312E0,-8.735234985E0,-3.032992859E0,3.487211292E0,5.876749754E-1,1.623405963E-1,7.524585724E-1
3.495999292E0,-2.020947418E0,-8.626411285E0,-2.884052582E0,3.497254292E0,5.652084351E-1,2.217297107E-1,8.001811504E-1
3.506043292E0,-1.708097992E0,-8.654552765E0,-2.769690399E0,3.507298292E0,5.849965215E-1,2.753966749E-1,8.305882812E-1
3.516086292E0,-1.632954254E0,-8.815468140E0,-2.731968842E0,3.517341292E0,6.004428864E-1,2.922727168E-1,8.294656873E-1
3.526130292E0,-1.533411255E0,-9.089847565E0,-2.855911102E0,3.527385292E0,5.704975128E-1,2.727387249E-1,7.764559984E-1
3.536173292E0,-1.332978058E0,-9.368567963E0,-2.935096436E0,3.537428292E0,5.222224593E-1,2.349156141E-1,6.875755787E-1
3.546217292E0,-1.110690308E0,-9.704319763E0,-2.809208221E0,3.547472292E0,4.454943836E-1,2.098105252E-1,5.603681207E-1
3.556260292E0,-5.448669434E-1,-1.003348526E1,-2.576891327E0,3.557515292E0,3.598239720E-1,1.349244565E-1,4.024579525E-1
3.566304292E0,2.894979858E-1,-1.033211426E1,-2.071991272E0,3.567559292E0,3.109123707E-1,1.417779271E-2,2.265132964E-1
3.576347292E0,9.361532593E-1,-1.041743683E1,-1.650617523E0,3.577602292E0,3.268094659E-1,-8.575156331E-2,6.700955331E-2
3.586391292E0,8.628057861E-1,-1.035277130E1,-1.719624023E0,3.587646292E0,3.532229662E-1,-2.159114331E-1,-4.695430025E-2
3.596434292E0,3.646417236E-1,-1.024185196E1,-2.218686218E0,3.597689292E0,3.740419447E-1,-3.424203098E-1,-9.788745642E-2
3.606478292E0,-4.677772522E-1,-1.014410522E1,-2.690355377E0,3.607733292E0,3.711310923E-1,-4.219068885E-1,-1.043935567E-1
3.616521292E0,-1.368753662E0,-1.019245468E1,-2.723137207E0,3.617776292E0,3.477299213E-1,-4.442673624E-1,-9.885132313E-2
3.626565292E0,-1.906136169E0,-1.073268127E1,-1.994302826E0,3.627820292E0,2.911279202E-1,-4.789220095E-1,-1.145485267E-1
3.636608292E0,-2.408042450E0,-1.180594940E1,-1.377285919E0,3.637863292E0,2.511280775E-1,-4.516294003E-1,-1.492058486E-1
3.646652292E0,-3.139271851E0,-1.317605026E1,-1.253343658E0,3.647907292E0,2.209161222E-1,-3.060801923E-1,-1.727979928E-1
3.656695292E0,-3.383114777E0,-1.392479324E1,-1.044827271E0,3.657950292E0,1.652850509E-1,-2.179390043E-1,-2.222647071E-1
3.666739292E0,-2.980152740E0,-1.363409775E1,-8.147557068E-1,3.667994292E0,5.852290988E-2,-2.260065228E-1,-3.149251640E-1
3.676782292E0,-2.608176270E0,-1.295241531E1,-7.702981567E-1,3.678037292E0,-1.257720888E-1,-2.839904428E-1,-4.289550185E-1
3.686826292E0,-2.776276703E0,-1.261621445E1,-6.441105652E-1,3.688081292E0,-3.404529989E-1,-2.874264419E-1,-5.341067314E-1
3.696869292E0,-3.019670563E0,-1.243284576E1,-1.856140137E-2,3.698124292E0,-5.833669305E-1,-2.451426834E-1,-6.290423274E-1
3.706913292E0,-2.793490906E0,-1.151794830E1,7.328759766E-1,3.708168292E0,-8.032993078E-1,-2.334785610E-1,-7.353472114E-1
3.716956292E0,-2.530637512E0,-1.023376877E1,1.060245209E0,3.718211292E0,-1.044890761E0,-1.787065566E-1,-8.590250611E-1
3.727000292E0,-2.778372345E0,-9.667496338E0,9.587562561E-1,3.728255292E0,-1.285418630E0,-6.675284356E-2,-1.003058434E0
3.737043292E0,-3.119063873E0,-9.638756104E0,1.198258209E0,3.738298292E0,-1.549327016E0,1.127573177E-1,-1.172186613E0
3.747087292E0,-3.543581085E0,-9.292376404E0,1.075812836E0,3.748342292E0,-1.800732851E0,2.619436085E-1,-1.305327058E0
3.757130292E0,-4.278103638E0,-8.863368530E0,6.436614990E-1,3.758385292E0,-2.007330418E0,2.409373820E-1,-1.327039361E0
3.767174292E0,-5.138215027E0,-9.025930481E0,-1.606159973E-1,3.768429292E0,-2.167055368E0,2.231290936E-1,-1.312568307E0
3.777217292E0,-6.086343384E0,-9.868228912E0,-1.067280579E0,3.778472292E0,-2.208895922E0,2.634236217E-1,-1.220663786E0
3.787261292E0,-6.720574493E0,-1.156090897E1,-1.518741760E0,3.788516292E0,-2.102923393E0,4.360811412E-1,-1.066316366E0
3.797304292E0,-7.417674866E0,-1.313473618E1,-1.334474945E0,3.798559292E0,-1.833226204E0,7.636963725E-1,-8.228772283E-1
3.807348292E0,-8.059540100E0,-1.404110138E1,-9.375004578E-1,3.808603292E0,-1.452244759E0,1.212514162E0,-5.597729087E-1
3.817391292E0,-8.116721191E0,-1.431622925E1,-6.143225098E-1,3.818646292E0,-1.069663763E0,1.551061988E0,-4.028942585E-1
3.827435292E0,-6.958280182E0,-1.393976212E1,-6.731501770E-1,3.828690292E0,-7.957171202E-1,1.516913533E0,-3.731970787E-1
3.837478292E0,-5.392536163E0,-1.288295975E1,-5.828878784E-1,3.838733292E0,-6.283423901E-1,1.291307330E0,-2.084834874E-1
3.847522292E0,-4.089795227E0,-1.160147461E1,-3.577560425E-2,3.848777292E0,-5.329756737E-1,1.261373878E0,4.256206565E-3
3.857565292E0,-2.315534821E0,-1.016685791E1,-2.483335876E-1,3.858820292E0,-5.271205902E-1,1.238792300E0,1.298334599E-1
3.867609292E0,-8.652008057E-1,-9.293274536E0,-1.049168243E0,3.868864292E0,-6.003370285E-1,9.746975303E-1,2.097938061E-1
3.877652292E0,-6.021977234E-1,-9.511670380E0,-1.654509430E0,3.878907292E0,-7.218369842E-1,6.305094361E-1,2.500705421E-1
3.887696292E0,-2.058219910E-1,-9.267677765E0,-2.142794037E0,3.888951292E0,-8.736760616E-1,1.674331278E-1,2.914576828E-1
3.897739292E0,-2.794688416E-1,-9.092541962E0,-2.657872925E0,3.898994292E0,-1.087097287E0,-2.016744465E-1,3.876581192E-1
3.907783292E0,-8.879534912E-1,-8.699459381E0,-3.052901459E0,3.909038292E0,-1.286606669E0,-4.778109491E-1,4.624937475E-1
3.917826292E0,-9.267228699E-1,-7.986492004E0,-2.970872040E0,3.919081292E0,-1.449042201E0,-6.849080324E-1,4.913353920E-1
3.927870292E0,-6.890171814E-1,-7.443571014E0,-2.955603790E0,3.929125292E0,-1.600432992E0,-8.262393475E-1,4.643485248E-1
3.937913292E0,-2.083666992E-1,-7.123686218E0,-3.252586212E0,3.939168292E0,-1.742570996E0,-9.666693211E-1,3.524841368E-1
3.947957292E0,5.116360474E-1,-7.023993530E0,-3.363206177E0,3.949212292E0,-1.807154775E0,-1.100985050E0,1.716054231E-1
3.958000292E0,9.171427917E-1,-6.976841583E0,-3.090173950E0,3.959255292E0,-1.802317977E0,-1.211683989E0,1.487268787E-2
3.968044292E0,7.429051208E-1,-6.829847260E0,-2.755619659E0,3.969299292E0,-1.738539815E0,-1.286784887E0,-8.778524399E-2
3.978087292E0,4.131408691E-1,-6.529871063E0,-2.456391907E0,3.979342292E0,-1.632499337E0,-1.389218926E0,-1.571139693E-1
3.988131292E0,1.356179810E-1,-6.055058441E0,-2.166594543E0,3.989386292E0,-1.489116430E0,-1.469449043E0,-2.004603744E-1
3.998174292E0,-2.406994629E-1,-5.534890137E0,-1.741927643E0,3.999429292E0,-1.311921120E0,-1.433277607E0,-2.392394245E-1
4.008218292E0,-6.475534058E-1,-5.041216736E0,-1.307231598E0,4.009473292E0,-1.097788334E0,-1.267482162E0,-2.990928888E-1
4.018261292E0,-9.740245056E-1,-4.504732361E0,-1.103804626E0,4.019516292E0,-8.142102361E-1,-1.011328220E0,-3.745477200E-1
4.028305292E0,-1.486109619E0,-4.017495575E0,-1.257684631E0,4.029560292E0,-4.768407047E-1,-7.634550333E-1,-4.279803038E-1
4.038348292E0,-1.883832550E0,-3.852688293E0,-1.647474060E0,4.039603292E0,-1.214519590E-1,-5.870449543E-1,-4.436576366E-1
4.048392292E0,-1.997745667E0,-3.983216858E0,-2.122136993E0,4.049647292E0,2.089232951E-1,-5.187886953E-1,-4.210252762E-1
4.058435292E0,-1.839973755E0,-4.202211456E0,-2.759960632E0,4.059690292E0,4.733023942E-1,-5.209790468E-1,-3.966908455E-1
4.068479292E0,-1.517394562E0,-4.188440094E0,-3.195105743E0,4.069734292E0,6.404713988E-1,-4.767048061E-1,-3.832845092E-1
4.078522292E0,-1.070124664E0,-3.913611603E0,-3.630101166E0,4.079777292E0,7.204172015E-1,-3.455083966E-1,-4.028097093E-1
4.088566292E0,-6.020480347E-1,-3.493734741E0,-3.951333160E0,4.089821292E0,7.908098698E-1,-1.377844959E-1,-4.029633701E-1
4.098609292E0,-5.580395508E-1,-3.451821899E0,-4.291575623E0,4.099864292E0,8.487900496E-1,9.051688015E-2,-3.360604644E-1
4.108653292E0,-8.219407654E-1,-3.682941284E0,-4.980892181E0,4.109908292E0,8.010227680E-1,4.092762172E-1,-2.584578097E-1
4.118696292E0,-1.264420624E0,-4.270170135E0,-5.886359253E0,4.119951292E0,6.514575481E-1,8.517255783E-1,-2.054382414E-1
4.128740292E0,-1.993404694E0,-5.568570099E0,-6.370602264E0,4.129995292E0,4.523798227E-1,1.338225722E0,-1.486042440E-1
4.138783292E0,-2.467917938E0,-7.224277039E0,-6.815177765E0,4.140038292E0,1.823263764E-1,1.370824456E0,-1.617383808E-1
4.148827292E0,-2.783761139E0,-9.437873840E0,-6.614295502E0,4.150082292E0,1.065794230E-1,9.393260479E-1,-6.029245630E-2
4.158870292E0,-3.925437012E0,-1.333801346E1,-5.664670258E0,4.160125292E0,-1.063974872E-1,2.751461565E-1,-6.966600567E-2
4.168914292E0,-4.212689667E0,-1.819825653E1,-6.576124878E0,4.170169292E0,-1.003904641E-1,4.547754303E-2,-2.344994396E-1
4.178957292E0,-3.930077362E0,-1.993255005E1,-5.525310059E0,4.180212292E0,1.653747857E-1,-3.511777520E-2,-3.295365572E-1
4.189001292E0,-3.306623840E0,-1.657203827E1,-5.345982971E0,4.190256292E0,1.314421296E-1,-1.229408383E-1,-2.887377441E-1
4.199044292E0,-3.112028503E0,-1.288625290E1,-8.102800140E0,4.200299292E0,-3.403629363E-1,-1.960739344E-1,-1.931606531E-1
4.209088292E0,-2.195783844E0,-1.003198837E1,-1.034229309E1,4.210343292E0,-1.031368256E0,-1.310877502E-1,-7.905963808E-2
4.219132292E0,-1.587149506E0,-8.644673309E0,-1.022044647E1,4.220387292E0,-1.536793470E0,2.869589627E-2,1.111719310E-1
4.229175292E0,-1.624122620E0,-9.888885956E0,-8.242759094E0,4.230430292E0,-1.815592289E0,-4.878291488E-2,1.667837948E-1
4.239218292E0,-6.282435608E-1,-1.247550705E1,-6.941664734E0,4.240473292E0,-1.825433612E0,-1.007220820E-1,4.191849008E-2
4.249262292E0,4.233197021E-1,-1.488804016E1,-5.547014923E0,4.250517292E0,-1.591689587E0,1.905198768E-2,-9.532458335E-2
4.259306292E0,-6.231541443E-1,-1.634900208E1,-4.726571045E0,4.260561292E0,-1.200719833E0,9.954965115E-2,-1.329285204E-1
4.269349292E0,-2.646346893E0,-1.648372192E1,-3.321892090E0,4.270604292E0,-6.719835997E-1,1.269810051E-1,-9.029237181E-2
4.279393292E0,-3.869303741E0,-1.446531921E1,-1.900597687E0,4.280648292E0,-2.170287073E-1,-2.005903274E-1,2.058954164E-2
4.289436292E0,-4.368815002E0,-1.095646591E1,-3.253783722E0,4.290691292E0,5.089141056E-2,-2.707694173E-1,1.191113219E-1
4.299480292E0,-4.715494080E0,-8.073161774E0,-3.288960571E0,4.300735292E0,1.703419387E-1,3.269337490E-2,2.352934331E-1
4.309523292E0,-4.908143463E0,-6.866670685E0,-2.878963165E0,4.310778292E0,2.347494215E-1,2.278101295E-1,3.101737797E-1
4.319567292E0,-4.348756714E0,-6.272556152E0,-2.844834137E0,4.320822292E0,3.352745771E-1,2.881794274E-1,3.601138592E-1
4.329610292E0,-4.213438110E0,-5.880222015E0,-2.497107239E0,4.330865292E0,4.538297057E-1,1.512237042E-1,4.660061896E-1
4.339654292E0,-4.047882385E0,-5.771847382E0,-2.038311310E0,4.340909292E0,5.238125920E-1,-5.117994547E-2,5.079857111E-1
4.349697292E0,-2.961441650E0,-5.806275787E0,-8.683442688E-1,4.350952292E0,6.237786412E-1,-2.217689902E-1,4.941476285E-1
4.359741292E0,-1.839375000E0,-6.354136505E0,7.794291687E-1,4.360996292E0,7.940620184E-1,-4.251883924E-1,4.547408819E-1
4.369784292E0,-6.162684631E-1,-7.238796844E0,2.174977112E0,4.371039292E0,9.984396696E-1,-6.242932081E-1,3.753256798E-1
4.379828292E0,6.489006042E-1,-8.142617340E0,2.777174835E0,4.381083292E0,1.194721341E0,-7.701743841E-1,2.610400021E-1
4.389871292E0,1.137933655E0,-9.068442078E0,2.533631287E0,4.391126292E0,1.358639717E0,-7.708859444E-1,2.432868481E-1
4.399915292E0,1.160087585E-1,-1.009605515E1,1.462608490E0,4.401170292E0,1.417370796E0,-6.674332023E-1,2.652458251E-1
4.409958292E0,-6.758445740E-1,-1.071337143E1,-3.772155762E-2,4.411213292E0,1.413135886E0,-5.720808506E-1,2.708309889E-1
4.420002292E0,-1.333127747E0,-1.091545120E1,-1.182091827E0,4.421257292E0,1.370067954E0,-4.619393051E-1,3.134792447E-1
4.430045292E0,-2.560425568E0,-1.074794952E1,-2.097737732E0,4.431300292E0,1.299694777E0,-3.201707304E-1,4.001909792E-1
4.440089292E0,-3.717220001E0,-1.029618896E1,-2.841091919E0,4.441344292E0,1.254606605E0,-1.180397794E-1,4.573000371E-1
4.450132292E0,-4.436773682E0,-9.740245056E0,-3.214116211E0,4.451387292E0,1.307988882E0,1.099909917E-1,4.530206025E-1
4.460176292E0,-4.795128479E0,-9.160800018E0,-2.913092194E0,4.461431292E0,1.434202790E0,3.089985251E-1,3.885427117E-1
4.470219292E0,-4.706512756E0,-8.512049103E0,-2.229164429E0,4.471474292E0,1.533623934E0,4.304693043E-1,2.918217778E-1
4.480263292E0,-4.282893677E0,-7.950117645E0,-1.799108734E0,4.481518292E0,1.532676578E0,4.476081431E-1,1.957115084E-1
4.490306292E0,-3.525169373E0,-7.601642303E0,-1.836680603E0,4.491561292E0,1.443769693E0,3.634415865E-1,1.011139005E-1
4.500350292E0,-2.584974518E0,-7.342231750E0,-2.086211700E0,4.501605292E0,1.324951172E0,2.768928707E-1,2.143429592E-2
4.510393292E0,-1.922601929E0,-7.031328278E0,-2.192490692E0,4.511648292E0,1.244310617E0,3.172818422E-1,-4.267784208E-2
4.520437292E0,-1.589843903E0,-6.685846710E0,-2.247576141E0,4.521692292E0,1.181329250E0,3.933957815E-1,-5.252785236E-2
4.530480292E0,-1.461710358E0,-6.658453674E0,-2.369871826E0,4.531735292E0,1.100067616E0,3.914516568E-1,-6.641854066E-3
4.540524292E0,-1.522633667E0,-6.962022400E0,-2.181264038E0,4.541779292E0,1.019569755E0,3.121569157E-1,5.102898926E-2
4.550567292E0,-1.412462769E0,-7.386689301E0,-1.835632782E0,4.551822292E0,9.650061727E-1,1.853550375E-1,1.024967059E-1
4.560611292E0,-1.300645294E0,-7.795788574E0,-1.297651520E0,4.561866292E0,9.630793929E-1,5.591852963E-2,1.593033224E-1
4.570654292E0,-1.426084442E0,-8.186775513E0,-7.878117371E-1,4.571909292E0,1.012966156E0,-3.473440558E-2,2.384889424E-1
4.580698292E0,-1.768123169E0,-8.508755951E0,-4.090992737E-1,4.581953292E0,1.105005860E0,-4.981404915E-2,3.354130685E-1
4.590741292E0,-2.079625397E0,-8.847052460E0,-3.574566650E-1,4.591996292E0,1.184087873E0,-3.013355285E-2,4.198195636E-1
4.600785292E0,-2.070494385E0,-9.139544220E0,-9.059161377E-1,4.602040292E0,1.201712370E0,6.579945330E-3,4.691167772E-1
4.610828292E0,-1.865720215E0,-9.337582397E0,-1.783092041E0,4.612083292E0,1.172261596E0,6.323444098E-2,4.726561010E-1
4.620872292E0,-1.482217712E0,-9.232650604E0,-2.498454437E0,4.622127292E0,1.102249384E0,1.685991734E-1,4.522626698E-1
4.630915292E0,-1.211580505E0,-9.075776825E0,-2.952310638E0,4.632170292E0,1.009000063E0,2.831169665E-1,4.419799149E-1
4.640959292E0,-1.145268402E0,-8.992100830E0,-3.117267609E0,4.642214292E0,9.084109068E-1,3.400668502E-1,4.587389529E-1
4.651002167E0,-1.325044556E0,-8.783135376E0,-2.999163208E0,4.652257167E0,8.041523695E-1,3.455502987E-1,5.067256689E-1
4.661046167E0,-1.483115845E0,-8.572822723E0,-2.886896667E0,4.662301167E0,7.042983174E-1,3.476832807E-1,5.795661211E-1
4.671089167E0,-1.749861145E0,-8.338260498E0,-2.792892151E0,4.672344167E0,6.304536462E-1,3.684937656E-1,6.913978457E-1
4.681133167E0,-2.069895630E0,-8.049361267E0,-2.652484131E0,4.682388167E0,6.259273291E-1,3.857239187E-1,8.307912350E-1
4.691176167E0,-2.208956451E0,-7.827522583E0,-2.411036224E0,4.692431167E0,6.499895453E-1,3.274646103E-1,9.570841789E-1
4.701220167E0,-2.063009949E0,-7.822882233E0,-2.203417969E0,4.702475167E0,6.415678263E-1,2.055867463E-1,1.011956573E0
4.711263167E0,-2.014810181E0,-8.366102600E0,-2.111209717E0,4.712518167E0,5.828432441E-1,2.165631950E-2,9.893087745E-1
4.721307167E0,-1.679657135E0,-9.287736053E0,-2.138303375E0,4.722562167E0,5.462396741E-1,-7.711574435E-2,8.928866982E-1
4.731350167E0,-9.568103027E-1,-1.007794281E1,-2.136956177E0,4.732605167E0,5.265434980E-1,-6.874037534E-2,7.549099326E-1
4.741394167E0,-8.562194824E-2,-1.067939209E1,-1.837429047E0,4.742649167E0,4.593202472E-1,-1.018362716E-1,5.773156881E-1
4.751437167E0,9.030720520E-1,-1.120435043E1,-1.443747711E0,4.752692167E0,3.977194428E-1,-1.490250975E-1,3.777959049E-1
4.761481167E0,1.590143280E0,-1.153456375E1,-1.229543152E0,4.762736167E0,4.096657038E-1,-2.489292026E-1,1.837719530E-1
4.771524167E0,1.758692780E0,-1.153291718E1,-1.558109894E0,4.772779167E0,4.406441450E-1,-3.743017912E-1,3.606450930E-2
4.781568167E0,1.170865173E0,-1.136631363E1,-2.442770233E0,4.782823167E0,4.446458817E-1,-4.428918958E-1,-4.622757062E-2
4.791611167E0,-1.306782532E-1,-1.119147720E1,-3.303480377E0,4.792866167E0,4.271875322E-1,-4.607888758E-1,-6.141477823E-2
4.801655167E0,-1.572180634E0,-1.107726471E1,-3.758085022E0,4.802910167E0,4.177862108E-1,-4.128135443E-1,-2.004596405E-2
4.811698167E0,-2.657274170E0,-1.102981339E1,-3.612737274E0,4.812953167E0,4.551964402E-1,-3.074319959E-1,2.398114838E-2
4.821742167E0,-2.891087952E0,-1.112621292E1,-2.580783234E0,4.822997167E0,4.469192028E-1,-2.812580764E-1,8.355445229E-3
4.831785167E0,-2.653232574E0,-1.168395309E1,-1.892514496E0,4.833040167E0,4.335756898E-1,-1.749625206E-1,-3.864907846E-2
4.841829167E0,-2.918480988E0,-1.261426849E1,-1.642534332E0,4.843084167E0,3.726786971E-1,6.112870760E-4,-4.676734656E-2
4.851872167E0,-3.120710449E0,-1.292098068E1,-1.576970673E0,4.853127167E0,3.020029068E-1,9.312497079E-2,-7.934845984E-2
4.861916167E0,-2.757715302E0,-1.237222183E1,-1.314117279E0,4.863171167E0,2.113721371E-1,4.419158399E-2,-1.654334813E-1
4.871959167E0,-2.455194397E0,-1.171957901E1,-1.042881317E0,4.873214167E0,2.314097434E-2,-3.180917352E-2,-2.674203217E-1
4.882003167E0,-2.641407166E0,-1.180654816E1,-6.423143005E-1,4.883258167E0,-2.236137092E-1,-3.383785859E-2,-3.708312809E-1
4.892046167E0,-2.922971649E0,-1.198422867E1,2.869532776E-1,4.893301167E0,-4.667443335E-1,-6.077440083E-2,-4.852787554E-1
4.902090167E0,-2.821931763E0,-1.154698792E1,1.072669373E0,4.903345167E0,-7.427577376E-1,-1.246061474E-1,-6.429775953E-1
4.912133167E0,-2.776127014E0,-1.074286011E1,1.613794098E0,4.913388167E0,-1.019439101E0,-2.168902606E-1,-8.352793455E-1
4.922177167E0,-2.998115387E0,-1.027538223E1,1.662891998E0,4.923432167E0,-1.255702853E0,-2.893107235E-1,-1.025932789E0
4.932220167E0,-3.484753418E0,-9.849966888E0,1.643133087E0,4.933475167E0,-1.470685482E0,-1.945983469E-1,-1.183884859E0
4.942264167E0,-4.118685150E0,-9.273515625E0,1.282682648E0,4.943519167E0,-1.711614251E0,-8.006460220E-2,-1.280812979E0
4.952307167E0,-4.311484222E0,-8.941056976E0,7.514373779E-1,4.953562167E0,-1.886871576E0,-2.858499996E-3,-1.370646715E0
4.962351167E0,-4.647236023E0,-8.863518219E0,2.844085693E-1,4.963606167E0,-1.970598578E0,1.098442078E-1,-1.388544679E0
4.972394167E0,-5.602549438E0,-9.657766571E0,-5.444178772E-1,4.973649167E0,-2.004240513E0,2.776731551E-1,-1.362695456E0
4.982438167E0,-6.420298920E0,-1.109358078E1,-1.402882690E0,4.983693167E0,-1.965829015E0,5.845383406E-1,-1.252708435E0
4.992481167E0,-7.394772491E0,-1.279838562E1,-1.403930511E0,4.993736167E0,-1.775868058E0,1.027849555E0,-9.658524990E-1
5.002525167E0,-8.294401703E0,-1.369561981E1,-7.720944214E-1,5.003780167E0,-1.487801790E0,1.348419666E0,-6.229473948E-1
5.012568167E0,-8.256231079E0,-1.374726242E1,-4.927752686E-1,5.013823167E0,-1.223722816E0,1.410293102E0,-3.836520314E-1
5.022612167E0,-7.119644623E0,-1.311572571E1,-4.731660461E-1,5.023867167E0,-1.028647065E0,1.159329891E0,-3.196932971E-1
5.032655167E0,-6.069578247E0,-1.211505661E1,-2.146536255E-1,5.033910167E0,-8.969203830E-1,8.612949848E-1,-1.778472215E-1
5.042699167E0,-6.016588440E0,-1.117156860E1,1.160087585E-1,5.043954167E0,-8.195534945E-1,6.111600995E-1,1.162553951E-1
5.052742167E0,-5.000202026E0,-1.024783951E1,1.059796143E-1,5.053997167E0,-7.769543529E-1,4.202096164E-1,3.797421455E-1
5.062786167E0,-3.471730499E0,-9.328601074E0,-4.418811035E-1,5.064041167E0,-7.834556699E-1,2.900744677E-1,4.971755445E-1
5.072829167E0,-1.663790131E0,-9.038504333E0,-9.533674622E-1,5.074084167E0,-8.067016006E-1,1.914059520E-1,4.939957261E-1
5.082873167E0,-2.621049500E-1,-9.270671539E0,-1.477727051E0,5.084128167E0,-8.450136185E-1,1.500911266E-2,4.520986080E-1
5.092916167E0,1.281335449E-1,-9.173972626E0,-2.062710571E0,5.094171167E0,-9.739710689E-1,-1.735648066E-1,3.924648762E-1
5.102960167E0,1.504371643E-1,-8.823850708E0,-2.840642853E0,5.104215167E0,-1.179492235E0,-4.481974542E-1,3.239717782E-1
5.113003167E0,-1.193019104E-1,-8.295599213E0,-3.285667419E0,5.114258167E0,-1.389602542E0,-7.469077110E-1,2.809039354E-1
5.123047167E0,-4.709207153E-1,-7.840246124E0,-3.189716949E0,5.124302167E0,-1.573165178E0,-9.634807706E-1,1.863542944E-1
5.133090167E0,-5.134323120E-2,-7.742499390E0,-2.987487488E0,5.134345167E0,-1.731653333E0,-1.188906670E0,1.066463068E-3
5.143134167E0,6.033952332E-1,-7.689808960E0,-2.823278961E0,5.144389167E0,-1.863053799E0,-1.401816010E0,-2.164615542E-1
5.153177167E0,8.491841125E-1,-7.670050049E0,-2.543361053E0,5.154432167E0,-1.936052084E0,-1.649250269E0,-4.053606391E-1
5.163221167E0,6.493496704E-1,-7.677384796E0,-2.281555481E0,5.164476167E0,-1.963605881E0,-1.812941432E0,-5.087090731E-1
5.173264167E0,1.781295776E-1,-7.324568481E0,-2.046544189E0,5.174519167E0,-1.916074038E0,-1.871801257E0,-5.305299163E-1
5.183308167E0,-4.337979126E-1,-6.671326904E0,-1.763333130E0,5.184563167E0,-1.803802609E0,-1.824551821E0,-5.111691356E-1
5.193351167E0,-9.198371887E-1,-5.829776917E0,-1.481169891E0,5.194606167E0,-1.569294214E0,-1.655646920E0,-5.194776654E-1
5.203395167E0,-1.333127747E0,-4.882397003E0,-1.140178986E0,5.204650167E0,-1.241331100E0,-1.387655854E0,-5.636473894E-1
5.213438167E0,-1.824855194E0,-3.983216858E0,-1.055904236E0,5.214693167E0,-8.768494725E-1,-1.105007410E0,-5.904062986E-1
5.223482167E0,-2.330803070E0,-3.594325562E0,-1.115180969E0,5.224737167E0,-4.713515639E-1,-7.959289551E-1,-6.172430515E-1
5.233525167E0,-2.656525726E0,-3.393742676E0,-1.262025604E0,5.234780167E0,-8.261047304E-2,-5.834090114E-1,-6.296776533E-1
5.243569167E0,-2.885399780E0,-3.478915558E0,-1.971999207E0,5.244824167E0,2.364268601E-1,-5.198192596E-1,-6.088404059E-1
5.253612167E0,-2.999761963E0,-3.655847626E0,-2.858306122E0,5.254867167E0,4.808557630E-1,-5.555993319E-1,-5.756710172E-1
5.263656167E0,-2.671943665E0,-3.699107666E0,-3.727249146E0,5.264911167E0,6.812435985E-1,-6.457133889E-1,-5.575160980E-1
5.273699167E0,-2.046843567E0,-3.431164856E0,-4.217030640E0,5.274954167E0,8.603606224E-1,-5.602847934E-1,-5.356717706E-1
5.283743167E0,-1.406175842E0,-3.218756561E0,-4.476740570E0,5.284998167E0,9.554173350E-1,-3.437939286E-1,-5.012601614E-1
5.293786167E0,-8.478369141E-1,-3.211571503E0,-4.760550385E0,5.295041167E0,9.639974833E-1,-1.080730408E-1,-4.569420218E-1
5.303830167E0,-5.257067871E-1,-3.346141663E0,-5.051844635E0,5.305085167E0,8.902364969E-1,1.740178764E-1,-3.816066682E-1
5.313873167E0,-5.887257385E-1,-3.928580475E0,-5.354215851E0,5.315128167E0,7.191597819E-1,6.277260184E-1,-2.239637673E-1
5.323917167E0,-1.390308838E0,-5.310207367E0,-5.278623047E0,5.325172167E0,3.910276890E-1,1.009677768E0,-1.249890551E-1
5.333960167E0,-9.544152832E-1,-6.809190216E0,-5.842949524E0,5.335215167E0,3.847817332E-2,1.196071863E0,-8.974743634E-2
5.344004167E0,-1.509760437E0,-9.707912292E0,-5.882317657E0,5.345259167E0,-1.399040371E-1,8.910676241E-1,-5.317201093E-2
5.354047167E0,-2.742896118E0,-1.428284866E1,-5.888305206E0,5.355302167E0,-2.776166201E-1,4.041507244E-1,-5.176453292E-2
5.364091167E0,-3.951782227E0,-1.896915344E1,-6.192173309E0,5.365346167E0,-2.539653778E-1,-1.608021259E-1,-3.029173911E-1
5.374134167E0,-3.111280060E0,-2.026575714E1,-5.449417877E0,5.375389167E0,-8.317898214E-2,-5.124171376E-1,-4.178005457E-1
5.384178167E0,-3.047662354E0,-1.725671448E1,-5.662424927E0,5.385433167E0,-1.554050297E-1,-8.005552888E-1,-3.602326512E-1
5.394221167E0,-2.882855072E0,-1.299447784E1,-8.452922058E0,5.395476167E0,-4.713235795E-1,-8.965643644E-1,-2.759787738E-1
5.404265167E0,-1.559457092E0,-9.362131348E0,-1.049243088E1,5.405520167E0,-1.000250697E0,-6.023098230E-1,-2.098434269E-1
5.414308167E0,-4.135899353E-1,-7.402705994E0,-1.114163086E1,5.415563167E0,-1.514685273E0,2.002191544E-2,-6.932678819E-2
5.424352167E0,-4.131408691E-1,-8.226742401E0,-9.496102753E0,5.425607167E0,-1.631476760E0,1.972848624E-1,-2.906858176E-2
5.434395167E0,1.173559570E-1,-1.029993118E1,-6.080056458E0,5.435650167E0,-1.539345503E0,1.883883029E-1,-1.566835344E-1
5.444439167E0,5.860313416E-1,-1.337917786E1,-4.976850586E0,5.445694167E0,-1.478194118E0,3.551297188E-1,-2.804208398E-1
5.454482167E0,-1.256187744E0,-1.665406769E1,-5.018314362E0,5.455737167E0,-1.228172779E0,6.189794540E-1,-2.811699808E-1
5.464526167E0,-4.267026672E0,-1.853266113E1,-2.287992096E0,5.465781167E0,-6.421868801E-1,4.682376981E-1,-2.403257787E-1
5.474569167E0,-6.409820709E0,-1.791938644E1,4.400848389E-1,5.475824167E0,-1.736830920E-2,-3.039937913E-1,-1.884711087E-1
5.484613167E0,-7.248676300E0,-1.446008011E1,-1.169368286E0,5.485868167E0,3.476085961E-1,-7.669297457E-1,-7.159025222E-2
5.494656167E0,-7.356751556E0,-9.785600739E0,-2.848426666E0,5.495911167E0,5.456742644E-1,-5.313723087E-1,1.372127682E-1
5.504700167E0,-7.535180511E0,-6.816225586E0,-3.109633484E0,5.505955167E0,5.404928327E-1,-1.069566235E-1,3.087700903E-1
5.514743167E0,-6.696474609E0,-5.877677307E0,-3.678450623E0,5.515998167E0,5.207910538E-1,1.148713827E-1,4.030654430E-1
5.524787167E0,-5.487289124E0,-5.725892944E0,-2.723436584E0,5.526042167E0,5.730816722E-1,4.303302616E-2,4.780617952E-1
5.534830167E0,-4.348008270E0,-5.672903137E0,-1.270707550E0,5.536085167E0,6.750634313E-1,-4.890462011E-2,5.513165593E-1
5.544874167E0,-3.187621307E0,-5.908662872E0,2.404000854E-1,5.546129167E0,8.165061474E-1,-1.059467122E-1,6.131968498E-1
5.554917167E0,-2.184257813E0,-6.527026978E0,1.592538300E0,5.556172167E0,9.711481333E-1,-1.486073583E-1,5.876390338E-1
5.564961167E0,-9.599537659E-1,-7.448810120E0,2.126028900E0,5.566216167E0,1.118112683E0,-1.754222810E-1,4.829897583E-1
5.575004167E0,-1.633103943E-1,-8.398734741E0,1.854493561E0,5.576259167E0,1.221769333E0,-1.626590788E-1,4.363192022E-1
5.585048167E0,-3.989204407E-1,-8.870852966E0,6.521937561E-1,5.586303167E0,1.233489156E0,-1.675361395E-1,4.515844285E-1
5.595091167E0,-1.088835754E0,-9.066945190E0,-6.924600220E-1,5.596346167E0,1.182525039E0,-1.558171660E-1,5.359272361E-1
5.605135167E0,-2.231409760E0,-9.203161926E0,-1.347348175E0,5.606390167E0,1.142481089E0,-1.171598360E-1,6.909554005E-1
5.615178167E0,-3.362757111E0,-9.324260101E0,-1.488504639E0,5.616433167E0,1.151172757E0,-9.357061982E-2,8.333011270E-1
5.625222167E0,-3.781286774E0,-9.341174927E0,-1.318907318E0,5.626477167E0,1.273411632E0,1.352264266E-2,8.909099102E-1
5.635265167E0,-4.023932190E0,-9.564959564E0,-1.033899994E0,5.636520167E0,1.475386024E0,2.090977430E-1,8.638769388E-1
5.645309167E0,-4.067491608E0,-9.846374359E0,-8.948391724E-1,5.646564167E0,1.719541907E0,4.757319689E-1,7.410167456E-1
5.655351583E0,-3.818409576E0,-9.796378326E0,-6.834786987E-1,5.656606583E0,1.936536074E0,7.759093642E-1,5.225405693E-1
5.665395583E0,-3.388353882E0,-9.132808228E0,-5.203179932E-1,5.666650583E0,2.061986446E0,9.855459929E-1,2.307444513E-1
5.675438583E0,-2.882705383E0,-8.258326721E0,-6.929090881E-1,5.676693583E0,2.047420740E0,1.047550082E0,-2.383484319E-2
5.685482583E0,-2.392774200E0,-7.577692108E0,-1.488654327E0,5.686737583E0,1.853400111E0,9.310925603E-1,-2.027526647E-1
5.695525583E0,-2.149829407E0,-7.086862793E0,-2.343825989E0,5.696780583E0,1.603469729E0,7.994011045E-1,-2.742233872E-1
5.705569583E0,-2.287992096E0,-6.710844727E0,-2.665656738E0,5.706824583E0,1.371032834E0,6.904789209E-1,-2.741153240E-1
5.715612583E0,-2.575693817E0,-6.461762695E0,-2.781066742E0,5.716867583E0,1.153848290E0,5.676600337E-1,-1.993651688E-1
5.725656583E0,-2.894530792E0,-6.549929352E0,-2.734064484E0,5.726911583E0,9.251918197E-1,3.655823469E-1,-9.394200891E-2
5.735699583E0,-2.867287445E0,-7.061415710E0,-2.615061951E0,5.736954583E0,7.455826402E-1,1.363715380E-1,-2.314853109E-2
5.745743583E0,-2.142344971E0,-7.550448761E0,-1.915267181E0,5.746998583E0,6.646946669E-1,-4.278569296E-2,1.193621941E-2
5.755786583E0,-1.557660828E0,-7.926017761E0,-9.458830261E-1,5.757041583E0,6.848903894E-1,-1.337907612E-1,8.552702516E-2
5.765830583E0,-1.683549042E0,-8.663384399E0,-2.736309814E-1,5.767085583E0,7.860081792E-1,-1.581433564E-1,1.660830230E-1
5.775873583E0,-1.656754761E0,-9.361532593E0,3.876937866E-2,5.777128583E0,9.386118650E-1,-4.044815153E-2,2.309645563E-1
5.785917583E0,-1.649420013E0,-9.639654236E0,5.837860107E-3,5.787172583E0,1.093859315E0,1.450899541E-1,2.790523469E-1
5.795960583E0,-1.605710907E0,-9.723180542E0,-4.394860840E-1,5.797215583E0,1.201804638E0,2.603925765E-1,3.232935667E-1
5.806004583E0,-1.495390320E0,-9.947863312E0,-1.167721710E0,5.807259583E0,1.221338034E0,2.555494010E-1,3.540781736E-1
5.816047583E0,-1.345252533E0,-1.004082001E1,-1.956730957E0,5.817302583E0,1.167705655E0,1.853521913E-1,3.787403703E-1
5.826091583E0,-1.458417206E0,-9.630223846E0,-2.480192413E0,5.827346583E0,1.073668957E0,1.237072945E-1,4.265884161E-1
5.836134583E0,-1.712438965E0,-8.924591217E0,-3.070864105E0,5.837389583E0,9.388394356E-1,1.162943840E-1,5.045570135E-1
5.846178583E0,-1.904788971E0,-8.156239014E0,-3.782633972E0,5.847433583E0,7.775773406E-1,1.438113302E-1,6.101143956E-1
5.856221583E0,-1.909878387E0,-7.553442535E0,-4.227808228E0,5.857476583E0,6.693683267E-1,2.678129375E-1,7.314983606E-1
5.866265583E0,-1.833237762E0,-7.208559723E0,-3.743864594E0,5.867520583E0,6.418977976E-1,4.064033329E-1,8.288792372E-1
5.876308583E0,-1.606459351E0,-7.112309875E0,-2.791095886E0,5.877563583E0,6.563704610E-1,4.065857530E-1,8.960870504E-1
5.886352583E0,-1.243913269E0,-7.367379456E0,-2.014211426E0,5.887607583E0,6.722127795E-1,2.509513199E-1,8.913418055E-1
5.896395583E0,-8.735833740E-1,-7.837851105E0,-1.458267517E0,5.897650583E0,6.856018305E-1,7.999291271E-2,8.500044346E-1
5.906439583E0,-1.099613342E0,-8.676557007E0,-1.535506897E0,5.907694583E0,6.745578647E-1,-1.079796068E-2,7.994739413E-1
5.916482583E0,-1.464105377E0,-9.794132996E0,-1.910776520E0,5.917737583E0,6.103828549E-1,-9.337246418E-2,7.265320420E-1
5.926526583E0,-1.111738129E0,-1.097682358E1,-1.902693329E0,5.927781583E0,4.922744334E-1,-2.075572610E-1,5.912063122E-1
5.936569583E0,-3.902384949E-1,-1.190175018E1,-1.632056122E0,5.937824583E0,4.033682644E-1,-2.828179300E-1,4.202675819E-1
5.946613583E0,9.699829102E-2,-1.215247879E1,-1.726360016E0,5.947868583E0,3.701232374E-1,-3.552863598E-1,2.339844406E-1
5.956656583E0,3.192860413E-1,-1.205802521E1,-2.329605560E0,5.957911583E0,3.367924690E-1,-3.587532640E-1,6.554243714E-2
5.966700583E0,-2.139051819E-1,-1.192405380E1,-2.979254608E0,5.967955583E0,3.194645643E-1,-3.053778112E-1,-5.541583151E-2
5.976743583E0,-1.268611908E0,-1.163096329E1,-3.350332947E0,5.977998583E0,3.233272135E-1,-2.557980120E-1,-1.149489358E-1
5.986787583E0,-2.136507111E0,-1.128233826E1,-3.157234497E0,5.988042583E0,2.637352645E-1,-2.533620596E-1,-1.678127348E-1
5.996830583E0,-2.727328491E0,-1.133667526E1,-2.397863617E0,5.998085583E0,2.075087577E-1,-3.305324614E-1,-2.124497145E-1
6.006874583E0,-3.598816223E0,-1.201985458E1,-1.800156555E0,6.008129583E0,2.081664205E-1,-2.518919408E-1,-2.271833122E-1
6.016917583E0,-4.112547913E0,-1.299627411E1,-1.466650085E0,6.018172583E0,2.061621249E-1,-4.602694139E-2,-2.377520651E-1
6.026961583E0,-3.978426819E0,-1.320598801E1,-1.199605408E0,6.028216583E0,1.530019194E-1,3.000141494E-2,-2.620806694E-1
6.037004583E0,-3.356619873E0,-1.231264572E1,-1.007854156E0,6.038259583E0,6.185336784E-2,-5.866837688E-3,-3.085595071E-1
6.047048583E0,-2.947969666E0,-1.172167465E1,-7.602690125E-1,6.048303583E0,-5.938127637E-2,-5.106989294E-2,-3.633661866E-1
6.057091583E0,-3.024759979E0,-1.191402466E1,-4.728666687E-1,6.058346583E0,-2.156097591E-1,-2.050799131E-2,-4.183106720E-1
6.067135583E0,-3.290307770E0,-1.202958435E1,3.101550293E-1,6.068390583E0,-4.389241040E-1,7.304792851E-2,-4.674570560E-1
6.077178583E0,-3.668720856E0,-1.160132492E1,8.310717773E-1,6.078433583E0,-6.474767923E-1,1.369086653E-1,-5.200731158E-1
6.087222583E0,-3.507506104E0,-1.099942657E1,1.247655487E0,6.088477583E0,-8.392434716E-1,1.954529285E-1,-6.250634789E-1
6.097265583E0,-3.378175049E0,-1.041174866E1,1.308279419E0,6.098520583E0,-1.086718202E0,3.280074894E-1,-7.401490211E-1
6.107309583E0,-3.833827515E0,-9.794731750E0,1.157692566E0,6.108564583E0,-1.335561991E0,4.503248334E-1,-8.559194207E-1
6.117352583E0,-4.435127106E0,-9.188791809E0,9.496252441E-1,6.118607583E0,-1.612998962E0,5.340753794E-1,-9.539580941E-1
6.127396583E0,-4.926255798E0,-9.036259003E0,4.481680298E-1,6.128651583E0,-1.886156678E0,5.386394262E-1,-1.018443942E0
6.137439583E0,-5.241649933E0,-8.917256470E0,-2.978805542E-2,6.138694583E0,-2.073684216E0,4.906213284E-1,-1.066921234E0
6.147483583E0,-5.829178162E0,-9.405541077E0,-5.538482666E-1,6.148738583E0,-2.163077831E0,4.549897015E-1,-1.001051784E0
6.157526583E0,-6.577172699E0,-1.069495972E1,-9.629475403E-1,6.158781583E0,-2.088338852E0,5.253072977E-1,-8.252831101E-1
6.167570583E0,-7.436236267E0,-1.210996719E1,-7.375163269E-1,6.168825583E0,-1.831627965E0,7.972374558E-1,-5.599165559E-1
6.177613583E0,-8.146060181E0,-1.295121780E1,-3.523672485E-1,6.178868583E0,-1.458536863E0,1.183231473E0,-3.057364821E-1
6.187657583E0,-8.094417572E0,-1.313383804E1,-3.411405945E-1,6.188912583E0,-1.083638668E0,1.555121779E0,-1.778257936E-1
6.197700583E0,-7.286248169E0,-1.275153305E1,-7.376660156E-1,6.198955583E0,-8.110169768E-1,1.692236304E0,-2.259344608E-1
6.207744583E0,-5.980962524E0,-1.198243240E1,-8.922944641E-1,6.208999583E0,-6.356193423E-1,1.534488320E0,-1.955159158E-1
6.217787583E0,-5.146896973E0,-1.127620102E1,-4.736151123E-1,6.219042583E0,-5.663601160E-1,1.391831279E0,5.485053360E-2
6.227831583E0,-4.145778809E0,-1.037926620E1,-3.724255371E-1,6.229086583E0,-5.648622513E-1,1.377032757E0,2.616027594E-1
6.237874583E0,-2.676434326E0,-9.268725586E0,-4.854405212E-1,6.239129583E0,-5.724139214E-1,1.172398210E0,3.844767511E-1
6.247918583E0,-1.361718292E0,-8.959019623E0,-4.725672913E-1,6.249173583E0,-6.454780698E-1,9.010007381E-1,4.185811281E-1
6.257961583E0,-5.357359314E-1,-9.180259552E0,-1.240620117E0,6.259216583E0,-7.852485180E-1,5.729695559E-1,4.102672637E-1
6.268005583E0,-2.859054565E-1,-8.988807678E0,-2.053130493E0,6.269260583E0,-9.927735329E-1,2.514428794E-1,4.249377847E-1
6.278048583E0,-6.533912659E-1,-8.465645599E0,-2.738704834E0,6.279303583E0,-1.190940499E0,-8.199155331E-2,4.509124160E-1
6.288092583E0,-9.960287476E-1,-7.852221222E0,-2.669548645E0,6.289347583E0,-1.324274302E0,-3.574520350E-1,4.857980609E-1
6.298135583E0,-1.155896301E0,-7.328310699E0,-2.332299957E0,6.299390583E0,-1.461554408E0,-4.847793579E-1,4.690305293E-1
6.308179583E0,-8.942404175E-1,-6.994504852E0,-2.500101013E0,6.309434583E0,-1.594149947E0,-6.355710030E-1,3.762516081E-1
6.318222583E0,-1.448986816E-1,-7.049290924E0,-2.755170593E0,6.319477583E0,-1.710304022E0,-8.870913982E-1,2.094796449E-1
6.328266583E0,4.263134766E-1,-7.295229492E0,-2.797083435E0,6.329521583E0,-1.809601903E0,-1.181891441E0,1.334884763E-2
6.338309583E0,5.676196289E-1,-7.491471405E0,-2.696642303E0,6.339564583E0,-1.894123673E0,-1.424666524E0,-1.470014155E-1
6.348353583E0,2.567161560E-1,-7.465275879E0,-2.469863892E0,6.349608583E0,-1.952270746E0,-1.537030578E0,-2.194655985E-1
6.358396583E0,-1.657054138E-1,-7.079078979E0,-2.166444855E0,6.359651583E0,-1.902537227E0,-1.513188839E0,-2.506749034E-1
6.368440583E0,-6.649172974E-1,-6.395001526E0,-1.670526123E0,6.369695583E0,-1.680676579E0,-1.327468157E0,-2.674169540E-1
6.378483583E0,-1.260528717E0,-5.602100372E0,-1.295256500E0,6.379738583E0,-1.320595145E0,-1.050989866E0,-3.063347638E-1
6.388527583E0,-1.687890015E0,-4.840334473E0,-1.378633118E0,6.389782583E0,-9.253386855E-1,-7.381399870E-1,-3.777841628E-1
6.398570583E0,-2.027384033E0,-4.485871582E0,-1.642983398E0,6.399825583E0,-5.449596643E-1,-5.101159215E-1,-4.296478927E-1
6.408613583E0,-2.343376923E0,-4.427942047E0,-2.117945709E0,6.409868583E0,-2.280834168E-1,-3.767169118E-1,-4.432130158E-1
6.418657583E0,-2.555635529E0,-4.348457336E0,-2.471959534E0,6.419912583E0,1.528289542E-2,-3.389221430E-1,-4.302240014E-1
6.428701583E0,-2.513872375E0,-4.452341309E0,-2.633323975E0,6.429956583E0,2.279462367E-1,-3.437810838E-1,-4.210416675E-1
6.438744583E0,-2.133513336E0,-4.497696991E0,-2.839894409E0,6.439999583E0,4.164303839E-1,-3.525852263E-1,-4.212054312E-1
6.448788583E0,-1.518442383E0,-4.220323792E0,-3.220103760E0,6.450043583E0,6.242220402E-1,-3.381278217E-1,-4.392229617E-1
6.458831583E0,-9.630972290E-1,-3.728596344E0,-3.532204742E0,6.460086583E0,7.731460333E-1,-2.173494697E-1,-4.629243016E-1
6.468874583E0,-7.120692444E-1,-3.341800690E0,-4.011957092E0,6.470129583E0,8.940426111E-1,2.480682731E-2,-4.345606863E-1
6.478918583E0,-1.133143616E0,-3.422033844E0,-4.192631378E0,6.480173583E0,9.498853683E-1,2.830572724E-1,-3.847670257E-1
6.488961583E0,-1.348096619E0,-3.696263580E0,-4.891228638E0,6.490216583E0,8.781157136E-1,5.185542703E-1,-3.276623785E-1
6.499005583E0,-1.838177490E0,-4.441863098E0,-5.742658081E0,6.500260583E0,7.061923742E-1,8.181220889E-1,-2.254521251E-1
6.509048583E0,-2.269730072E0,-6.153852997E0,-6.296356659E0,6.510303583E0,4.048916101E-1,1.050082088E0,-1.596811265E-1
6.519092583E0,-2.364782410E0,-8.233628082E0,-6.745722198E0,6.520347583E0,4.141327739E-2,1.115351439E0,-1.374692917E-1
6.529135583E0,-2.838846588E0,-1.108669510E1,-6.699169006E0,6.530390583E0,-2.344801128E-1,8.590309620E-1,-7.952149957E-2
6.539179583E0,-4.275708618E0,-1.511526764E1,-6.314918060E0,6.540434583E0,-4.458458722E-1,2.447270602E-1,-1.135162190E-1
6.549222583E0,-4.191284180E0,-1.868609207E1,-6.650969238E0,6.550477583E0,-3.229796290E-1,-3.284564242E-2,-2.502023876E-1
6.559266583E0,-3.825295258E0,-1.919159088E1,-5.231471100E0,6.560521583E0,-1.138186827E-1,-3.722423613E-1,-3.256918192E-1
6.569309583E0,-2.910547485E0,-1.670541092E1,-6.362369385E0,6.570564583E0,-1.635781229E-1,-6.337292790E-1,-2.510877550E-1
6.579353583E0,-2.814896393E0,-1.288685165E1,-8.892258453E0,6.580608583E0,-3.802249432E-1,-8.009003997E-1,-1.337523758E-1
6.589396583E0,-1.505868530E0,-9.043294373E0,-9.983489227E0,6.590651583E0,-5.395126939E-1,-8.913020492E-1,-6.975433230E-2
6.599440583E0,8.041278076E-1,-6.378685455E0,-9.604477386E0,6.600695583E0,-5.152105689E-1,-9.029568434E-1,-4.903308302E-2
6.609483583E0,2.625240784E0,-5.033432922E0,-8.169411621E0,6.610738583E0,-3.241548240E-1,-8.853911161E-1,-8.368764073E-2
6.619527583E0,3.798500977E0,-4.149221649E0,-7.175029449E0,6.620782583E0,-7.440517843E-2,-8.131216764E-1,-1.585395187E-1
6.629570583E0,4.003873901E0,-3.636537781E0,-6.520590363E0,6.630825583E0,-8.906320482E-2,-3.400912881E-1,-2.656449676E-1
6.639614583E0,3.003953247E0,-4.634213104E0,-6.437513123E0,6.640869583E0,-3.158955574E-1,1.949665099E-1,-4.117960334E-1
6.649658417E0,1.293160858E0,-6.756649475E0,-5.870043182E0,6.650913417E0,-4.013284147E-1,2.405032814E-1,-5.300428271E-1
6.659702417E0,-7.250921631E-1,-8.752598877E0,-4.034859467E0,6.660957417E0,-2.738788426E-1,2.355210483E-1,-5.662781000E-1
6.669745417E0,-3.325783997E0,-1.121872055E1,-2.576891327E0,6.671000417E0,-3.072259426E-1,4.948689044E-1,-5.374616981E-1
6.679789417E0,-5.890849915E0,-1.527049484E1,-2.568209381E0,6.681044417E0,-3.345289230E-1,6.138515472E-1,-5.175082684E-1
6.689832417E0,-8.546028442E0,-2.063863174E1,-3.143463135E-2,6.691087417E0,3.059777915E-1,4.847469032E-1,-5.664703250E-1
6.699876417E0,-1.092128906E1,-2.312241669E1,3.058439941E0,6.701131417E0,7.473450899E-1,-2.750558853E-1,-5.344521999E-1
6.709919417E0,-1.031175659E1,-2.001652542E1,-1.097218323E0,6.711174417E0,7.084730268E-1,-9.599757791E-1,-2.962334156E-1
6.719963417E0,-8.402626648E0,-1.310854065E1,-4.027824097E0,6.721218417E0,6.526067853E-1,-6.920279264E-1,5.582715943E-2
6.730006417E0,-8.179141388E0,-7.249724121E0,-3.067720642E0,6.731261417E0,6.753915548E-1,-1.061165035E-1,4.137949347E-1
6.740050417E0,-7.471862183E0,-4.455634460E0,-1.986968079E0,6.741305417E0,7.640236616E-1,3.214329481E-1,7.406651974E-1
6.750093417E0,-6.261329498E0,-3.950285339E0,-6.457571411E-1,6.751348417E0,9.326327443E-1,5.267934203E-1,9.802832007E-1
6.760137417E0,-4.890180817E0,-4.150269470E0,2.818638611E-1,6.761392417E0,1.051680326E0,4.898540080E-1,1.048844457E0
6.770180417E0,-3.068169708E0,-4.268373871E0,3.679348755E-1,6.771435417E0,1.085775614E0,3.890593648E-1,1.029922843E0
6.780224417E0,-1.807042236E0,-4.420307922E0,6.153703308E-1,6.781479417E0,1.043152094E0,3.098218143E-1,1.049661160E0
6.790267417E0,-1.241368561E0,-4.826712799E0,8.138575745E-1,6.791522417E0,9.401744604E-1,9.850721061E-2,1.081486464E0
6.800311417E0,-7.545808411E-1,-6.319558411E0,5.313949585E-1,6.801566417E0,8.153542280E-1,-2.005106509E-1,1.050714612E0
6.810354417E0,-2.772235107E-1,-8.791218567E0,-1.169068909E-1,6.811609417E0,6.586824059E-1,-3.595091105E-1,8.858482242E-1
6.820398417E0,4.572990417E-1,-1.049976562E1,-4.740641785E-1,6.821653417E0,6.486009955E-1,-4.171865284E-1,6.500932574E-1
6.830441417E0,3.260220337E-1,-1.213376770E1,1.571731567E-2,6.831696417E0,8.871110678E-1,-2.751466334E-1,4.113798738E-1
6.840485417E0,-1.183289337E0,-1.293490173E1,5.577401733E-1,6.841740417E0,1.214094520E0,-1.045325547E-1,2.015741915E-1
6.850528417E0,-2.971470795E0,-1.261262192E1,-7.828720093E-2,6.851783417E0,1.488198519E0,4.499181360E-2,7.327414304E-2
6.860572417E0,-4.606221313E0,-1.158994858E1,-1.062640228E0,6.861827417E0,1.702819943E0,2.364637703E-1,-2.733821794E-2
6.870615417E0,-4.770579529E0,-1.019065842E1,-1.216071167E0,6.871870417E0,1.871263504E0,4.729175270E-1,-7.600144297E-2
6.880659417E0,-4.325405273E0,-8.973240051E0,-1.095272369E0,6.881914417E0,1.976305962E0,7.069071531E-1,-7.955303788E-2
6.890702417E0,-3.364553375E0,-8.128247223E0,-1.326242065E0,6.891957417E0,1.940266371E0,8.720015287E-1,-5.640930310E-2
6.900746417E0,-2.760858765E0,-7.736661530E0,-2.086960144E0,6.902001417E0,1.747118473E0,9.623879194E-1,-3.966574371E-2
6.910789417E0,-2.610421600E0,-7.655679932E0,-2.789299622E0,6.912044417E0,1.496342182E0,9.619150758E-1,1.647353359E-2
6.920833417E0,-2.647843781E0,-7.597451019E0,-2.899171143E0,6.922088417E0,1.212358356E0,7.782701254E-1,9.839929640E-2
6.930876417E0,-2.697839813E0,-7.796986084E0,-2.899919586E0,6.932131417E0,9.057429433E-1,4.238706231E-1,1.923985779E-1
6.940920417E0,-2.476300507E0,-8.221054230E0,-2.704575806E0,6.942175417E0,6.388185620E-1,6.250211038E-3,2.029433697E-1
6.950963417E0,-1.618135071E0,-8.458759918E0,-2.299368439E0,6.952218417E0,4.735245407E-1,-2.658728361E-1,1.913262159E-1
6.961007417E0,-1.092727661E0,-8.442294159E0,-1.828298035E0,6.962262417E0,4.369718432E-1,-3.161149621E-1,1.901445687E-1
6.971050417E0,-1.184636536E0,-8.121810608E0,-1.466350708E0,6.972305417E0,4.993470311E-1,-2.484332919E-1,2.199776769E-1
6.981094417E0,-1.373543701E0,-7.703879700E0,-9.765692139E-1,6.982349417E0,6.099782586E-1,-1.179439873E-1,2.724664509E-1
6.991137417E0,-1.584155731E0,-7.551047516E0,-4.140390015E-1,6.992392417E0,7.855089307E-1,5.398196634E-3,3.191388845E-1
7.001181417E0,-1.631307678E0,-7.473059692E0,1.932481384E-1,7.002436417E0,1.002043962E0,1.131584793E-1,3.513828218E-1
7.011224417E0,-1.759890289E0,-7.497159576E0,2.893482971E-1,7.012479417E0,1.169286132E0,1.456825584E-1,3.854196072E-1
7.021268417E0,-2.121837616E0,-7.801776123E0,-3.381468201E-1,7.022523417E0,1.223076940E0,8.244366199E-2,4.219672084E-1
7.031311417E0,-2.533481598E0,-7.833360443E0,-1.360371094E0,7.032566417E0,1.149163723E0,-4.678623751E-2,4.754956961E-1
7.041355417E0,-3.001109161E0,-7.565567322E0,-2.387235718E0,7.042610417E0,1.009262204E0,-1.144337207E-1,5.556235313E-1
7.051398417E0,-3.318000183E0,-7.165449371E0,-3.218906250E0,7.052653417E0,8.458291292E-1,-4.734335095E-2,6.791535020E-1
7.061442417E0,-3.308569794E0,-7.149282990E0,-3.669918365E0,7.062697417E0,7.176682353E-1,5.534814298E-2,7.909761667E-1
7.071485417E0,-2.481838989E0,-7.468569031E0,-3.871100006E0,7.072740417E0,6.560154557E-1,1.796165705E-1,8.532025218E-1
7.081529417E0,-1.424587555E0,-7.928562469E0,-3.372037811E0,7.082784417E0,6.915457249E-1,3.558683097E-1,8.830653429E-1
7.091572417E0,-8.921447754E-1,-8.307424622E0,-2.703827362E0,7.092827417E0,7.496454716E-1,4.909537435E-1,8.697264194E-1
7.101616417E0,-8.129594421E-1,-8.661887512E0,-2.197280731E0,7.102871417E0,7.874661088E-1,4.907012880E-1,8.306881785E-1
7.111659417E0,-1.172661438E0,-9.177265778E0,-1.934277649E0,7.112914417E0,7.746650577E-1,3.635758758E-1,7.889267206E-1
7.121703417E0,-1.904639282E0,-9.889185333E0,-2.083217926E0,7.122958417E0,6.942836642E-1,1.955943406E-1,7.473419905E-1
7.131746417E0,-2.161654816E0,-1.076396622E1,-2.020947418E0,7.133001417E0,5.712977052E-1,-4.742741119E-3,6.680245399E-1
7.141790417E0,-1.396745453E0,-1.151570297E1,-1.837878113E0,7.143045417E0,4.516485631E-1,-1.744385511E-1,5.307966471E-1
7.151833417E0,-4.186793518E-1,-1.187735092E1,-1.916464691E0,7.153088417E0,3.881620169E-1,-2.668065131E-1,3.696331680E-1
7.161877417E0,1.613644409E-1,-1.184876038E1,-2.354753265E0,7.163132417E0,3.598478138E-1,-3.382681906E-1,2.196663171E-1
7.171920417E0,7.888595581E-2,-1.175221115E1,-2.936743011E0,7.173175417E0,3.618993461E-1,-3.413432240E-1,1.067430452E-1
7.181964417E0,-7.924520874E-1,-1.164757874E1,-3.270399170E0,7.183219417E0,4.055546820E-1,-2.993342280E-1,2.488413267E-2
7.192007417E0,-1.471889191E0,-1.145028900E1,-2.962489471E0,7.193262417E0,4.007286429E-1,-3.296958208E-1,-9.669309855E-2
7.202051417E0,-1.584305420E0,-1.164757874E1,-2.051483917E0,7.203306417E0,3.164425194E-1,-4.560050070E-1,-2.439517975E-1
7.212094417E0,-2.560724945E0,-1.266680923E1,-1.765877838E0,7.213349417E0,2.641049922E-1,-4.014788568E-1,-3.354385197E-1
7.222138417E0,-3.507057037E0,-1.379755783E1,-1.538800049E0,7.223393417E0,1.938566715E-1,-2.170152664E-1,-3.887957335E-1
7.232181417E0,-3.485352173E0,-1.370744522E1,-1.301992493E0,7.233436417E0,7.776328921E-2,-2.349929810E-1,-4.758507907E-1
7.242224417E0,-2.852318573E0,-1.272893005E1,-7.384144592E-1,7.243479417E0,-7.361744344E-2,-3.363582194E-1,-5.699677467E-1
7.252268417E0,-2.768492889E0,-1.240320740E1,-1.393601990E-1,7.253523417E0,-2.594043612E-1,-4.000781178E-1,-6.646012664E-1
7.262311417E0,-3.000061340E0,-1.268881348E1,4.487667847E-1,7.263566417E0,-4.677759409E-1,-4.196624458E-1,-7.353907824E-1
7.272355417E0,-3.149450684E0,-1.229064148E1,1.453178101E0,7.273610417E0,-6.975705028E-1,-4.077335596E-1,-8.019161820E-1
7.282398417E0,-3.390449524E0,-1.133218460E1,2.005080414E0,7.283653417E0,-9.104442000E-1,-3.732285798E-1,-8.623313308E-1
7.292442417E0,-3.599564667E0,-1.045126648E1,1.811981964E0,7.293697417E0,-1.104168892E0,-3.177121580E-1,-9.266089797E-1
7.302485417E0,-3.752396851E0,-9.868378601E0,1.368603973E0,7.303740417E0,-1.292486548E0,-1.371999085E-1,-1.008011937E0
7.312529417E0,-4.187991028E0,-9.619595947E0,1.017134857E0,7.313784417E0,-1.497413874E0,9.155339003E-2,-1.084971666E0
7.322572417E0,-4.649930420E0,-9.686806183E0,5.786965942E-1,7.323827417E0,-1.699548841E0,1.857533902E-1,-1.128666401E0
7.332616417E0,-5.050347748E0,-1.013692017E1,1.727407837E-1,7.333871417E0,-1.879127979E0,2.045217007E-1,-1.148091316E0
7.342659417E0,-5.846991119E0,-1.104448288E1,-3.454815674E-1,7.343914417E0,-2.026752710E0,2.159828842E-1,-1.036300421E0
7.352703417E0,-6.733747101E0,-1.217493210E1,-8.123606873E-1,7.353958417E0,-2.058109760E0,2.806403637E-1,-8.212230206E-1
7.362746417E0,-7.554640045E0,-1.314401688E1,-8.210426331E-1,7.364001417E0,-1.937698483E0,4.711466730E-1,-5.638774633E-1
7.372790417E0,-8.191116486E0,-1.375714188E1,-7.506889343E-1,7.374045417E0,-1.719320178E0,8.040179014E-1,-3.548462093E-1
7.382833417E0,-8.279133453E0,-1.385099670E1,-8.499325562E-1,7.384088417E0,-1.462804437E0,1.249935985E0,-2.274909019E-1
7.392877417E0,-7.732919312E0,-1.327065353E1,-7.789801025E-1,7.394132417E0,-1.212313175E0,1.615010500E0,-2.542738318E-1
7.402920417E0,-6.739734650E0,-1.218106934E1,-4.580474854E-1,7.404175417E0,-1.005131721E0,1.754631996E0,-3.612423539E-1
7.412964417E0,-5.827232208E0,-1.085602478E1,2.119592285E-1,7.414219417E0,-8.411752582E-1,1.563376784E0,-2.814486921E-1
7.423007417E0,-5.181325378E0,-9.781559143E0,7.926017761E-1,7.424262417E0,-7.920151353E-1,1.290907979E0,-3.194084764E-2
7.433051417E0,-4.235891418E0,-8.568332062E0,5.418731689E-1,7.434306417E0,-8.354145885E-1,9.978719950E-1,1.214812025E-1
7.443094417E0,-2.796634369E0,-7.699089661E0,3.097059631E-1,7.444349417E0,-9.109788537E-1,7.021455765E-1,1.953748614E-1
7.453138417E0,-1.820663910E0,-7.726632385E0,-1.549278259E-1,7.454393417E0,-9.852379560E-1,4.472641647E-1,2.151710838E-1
7.463181417E0,-1.144370270E0,-7.906109161E0,-9.849517822E-1,7.464436417E0,-1.075954318E0,1.619480103E-1,2.133228630E-1
7.473225417E0,-9.166937256E-1,-8.081095276E0,-1.866917725E0,7.474480417E0,-1.201303601E0,-1.879983246E-1,2.607052326E-1
7.483268417E0,-1.273551636E0,-8.074508972E0,-2.247426453E0,7.484523417E0,-1.311140180E0,-5.575489402E-1,3.677368760E-1
7.493312417E0,-1.580263824E0,-7.755671997E0,-1.999092865E0,7.494567417E0,-1.395985365E0,-8.486241698E-1,4.352249205E-1
7.503355417E0,-1.100810852E0,-7.388635254E0,-1.894310760E0,7.504610417E0,-1.490466118E0,-1.086877227E0,3.838823736E-1
7.513399417E0,-3.932322693E-1,-7.160958710E0,-2.181563416E0,7.514654417E0,-1.616344094E0,-1.289944530E0,2.406253517E-1
7.523442417E0,1.704954529E-1,-7.379653931E0,-2.410138092E0,7.524697417E0,-1.735042572E0,-1.487069607E0,3.530044109E-2
7.533486417E0,7.165599060E-1,-7.635322266E0,-2.397115173E0,7.534741417E0,-1.841154814E0,-1.643220425E0,-1.624628454E-1
7.543529417E0,7.915539551E-1,-7.455845490E0,-2.487676849E0,7.544784417E0,-1.923166633E0,-1.725833774E0,-3.184907734E-1
7.553573417E0,5.192701721E-1,-7.053781586E0,-2.481389923E0,7.554828417E0,-1.936877728E0,-1.677320838E0,-3.743585944E-1
7.563616417E0,-3.412902832E-2,-6.462062073E0,-2.206711121E0,7.564871417E0,-1.829623222E0,-1.523761749E0,-3.694786131E-1
7.573660417E0,-7.262896729E-1,-5.733976135E0,-1.820214844E0,7.574915417E0,-1.557662129E0,-1.274059534E0,-3.795310259E-1
7.583703417E0,-1.294657745E0,-5.041516113E0,-1.482966156E0,7.584958417E0,-1.212296844E0,-9.478564262E-1,-4.279417098E-1
7.593747417E0,-1.820663910E0,-4.408033447E0,-1.353036346E0,7.595002417E0,-8.807623982E-1,-6.058754921E-1,-5.002235174E-1
7.603790417E0,-2.291434937E0,-4.009861450E0,-1.379980316E0,7.605045417E0,-5.879869461E-1,-3.214799762E-1,-5.552047491E-1
7.613834417E0,-2.705324249E0,-3.880231018E0,-1.615590363E0,7.615089417E0,-3.494111300E-1,-1.689810157E-1,-5.711730719E-1
7.623877417E0,-2.995870056E0,-3.916904755E0,-2.030078430E0,7.625132417E0,-1.218264177E-1,-1.530649066E-1,-5.246010423E-1
7.633921417E0,-3.110531616E0,-4.130660248E0,-2.431693268E0,7.635176417E0,1.035082415E-1,-2.578917146E-1,-4.557762146E-1
7.643964417E0,-2.755170593E0,-4.170627136E0,-3.132386169E0,7.645219417E0,3.349313438E-1,-4.476283491E-1,-4.177379906E-1
7.654008417E0,-2.095043335E0,-4.048780518E0,-3.586242371E0,7.655263417E0,6.256120801E-1,-5.198199749E-1,-3.834135532E-1
7.664051417E0,-1.562450867E0,-3.703897705E0,-3.603456573E0,7.665306417E0,8.613907695E-1,-3.849739730E-1,-3.559707403E-1
7.674095417E0,-1.139879608E0,-3.480861511E0,-3.829636230E0,7.675350417E0,1.022337556E0,-1.566161513E-1,-3.141188622E-1
7.684138417E0,-9.403445435E-1,-3.455713806E0,-4.086352386E0,7.685393417E0,1.089765668E0,1.173123270E-1,-2.353985012E-1
7.694182417E0,-1.076561279E0,-3.929029541E0,-4.470453644E0,7.695437417E0,9.907883406E-1,4.441210032E-1,-1.325022876E-1
7.704225417E0,-1.149010620E0,-5.187013550E0,-5.154680786E0,7.705480417E0,7.199813128E-1,6.553837061E-1,-9.058547020E-2
7.714269417E0,-1.062939606E0,-7.178621979E0,-6.367309113E0,7.715524417E0,3.479022384E-1,7.513584495E-1,-1.627733260E-1
7.724312417E0,-6.788383484E-1,-9.954748993E0,-7.214098206E0,7.725567417E0,1.315282658E-3,7.073545456E-1,-2.235501260E-1
7.734356417E0,-1.504671021E0,-1.349877914E1,-6.576274567E0,7.735611417E0,-1.994981617E-1,4.001963139E-1,-2.495113313E-1
7.744399417E0,-3.063978424E0,-1.737347168E1,-5.863307190E0,7.745654417E0,-2.523089349E-1,1.356237680E-1,-3.761544824E-1
7.754443417E0,-3.290158081E0,-1.935999069E1,-5.550457764E0,7.755698417E0,-2.178163528E-1,-6.067975238E-2,-5.227626562E-1
7.764486417E0,-3.035537567E0,-1.847458191E1,-5.763015747E0,7.765741417E0,-2.073482722E-1,-2.146117985E-1,-4.629506767E-1
7.774529417E0,-3.860172729E0,-1.585472992E1,-7.143744507E0,7.775784417E0,-4.229104221E-1,-5.345352888E-1,-2.865107358E-1
7.784573417E0,-3.878883820E0,-1.191207870E1,-8.984616394E0,7.785828417E0,-8.065236211E-1,-8.141523004E-1,-1.192748845E-1
7.794616417E0,-2.483036499E0,-8.336015167E0,-9.927206268E0,7.795871417E0,-1.285941243E0,-7.359528542E-1,7.883264683E-3
7.804660417E0,-1.183588715E0,-6.663543091E0,-1.007674530E1,7.805915417E0,-1.642596841E0,-3.083530664E-1,1.134728119E-1
7.814703417E0,-8.147557068E-1,-8.042774963E0,-8.528215485E0,7.815958417E0,-1.689532518E0,-9.892632812E-2,1.133708358E-1
7.824747417E0,-3.043171692E-1,-1.035142410E1,-6.184688873E0,7.826002417E0,-1.615458608E0,-9.942752868E-2,-2.484962344E-2
7.834790417E0,-3.230282593E-1,-1.252146149E1,-5.182073822E0,7.836045417E0,-1.474434137E0,1.313857641E-2,-1.851813346E-1
7.844834417E0,-1.822011108E0,-1.419917267E1,-4.531676331E0,7.846089417E0,-1.151193976E0,7.794793695E-2,-2.608214915E-1
7.854877417E0,-3.848796387E0,-1.464150284E1,-3.347039795E0,7.856132417E0,-6.456690431E-1,-1.322244257E-1,-2.320987135E-1
7.864921417E0,-5.470074921E0,-1.423584641E1,-2.271825714E0,7.866176417E0,-6.192943081E-2,-2.870587707E-1,-1.403874308E-1
7.874964417E0,-5.079387360E0,-1.186911804E1,-1.118474121E0,7.876219417E0,3.339690566E-1,-3.233617842E-1,-6.145763397E-2
7.885008417E0,-4.939428406E0,-8.087980957E0,-1.965712280E0,7.886263417E0,4.228267670E-1,-1.509503424E-1,1.399590969E-1
7.895051417E0,-6.501729584E0,-6.405779114E0,-3.345243530E0,7.896306417E0,4.685606360E-1,1.607406735E-1,3.352417052E-1
7.905095417E0,-6.964716797E0,-6.737938385E0,-3.397933960E0,7.906350417E0,5.197966695E-1,3.469280899E-1,4.474289715E-1
7.915138417E0,-6.232589264E0,-7.194189606E0,-3.379073181E0,7.916393417E0,5.982230902E-1,2.956681550E-1,5.296498537E-1
7.925182417E0,-5.656437378E0,-7.306156769E0,-2.951562195E0,7.926437417E0,7.196589708E-1,1.388311535E-1,6.322491765E-1
7.935225417E0,-5.520220642E0,-7.343129883E0,-1.737137604E0,7.936480417E0,8.644945025E-1,8.192328364E-2,7.216388583E-1
7.945269417E0,-4.746329956E0,-7.380102997E0,-1.332229614E-2,7.946524417E0,1.074252605E0,9.001076967E-2,7.376554012E-1
7.955312417E0,-3.254232788E0,-7.695048065E0,1.502425690E0,7.956567417E0,1.261141062E0,3.967115656E-2,6.581270099E-1
7.965356417E0,-1.756297760E0,-8.307274933E0,1.848206635E0,7.966611417E0,1.364529252E0,-6.029805169E-2,5.351147652E-1
7.975399417E0,-9.783654785E-1,-8.864116974E0,1.295705566E0,7.976654417E0,1.401566386E0,-1.286874115E-1,4.680642188E-1
7.985443417E0,-9.985734558E-1,-9.142088928E0,4.248165894E-1,7.986698417E0,1.341463923E0,-1.555557847E-1,4.676788747E-1
7.995486417E0,-1.243763580E0,-9.074429626E0,-6.466552734E-1,7.996741417E0,1.233378768E0,-1.761892587E-1,5.069041848E-1
8.005530417E0,-1.481020203E0,-8.845705261E0,-1.343905334E0,8.006785417E0,1.144260526E0,-2.067418396E-1,5.574448705E-1
8.015573417E0,-1.698068848E0,-8.605305176E0,-1.318458252E0,8.016828417E0,1.154482841E0,-2.272634804E-1,5.806760192E-1
8.025617417E0,-1.852846985E0,-8.675658875E0,-7.809260559E-1,8.026872417E0,1.221470594E0,-2.208615094E-1,5.548217893E-1
8.035660417E0,-2.124681702E0,-8.916657715E0,-3.354524231E-1,8.036915417E0,1.328605175E0,-6.453920156E-2,4.960115552E-1
8.045704417E0,-2.668949890E0,-9.124126282E0,-4.381388855E-1,8.046959417E0,1.467553496E0,1.270209104E-1,3.930484354E-1
8.055747417E0,-3.201692047E0,-9.304650879E0,-9.886940002E-1,8.057002417E0,1.567245483E0,2.821616828E-1,2.510997653E-1
8.065791417E0,-3.580105133E0,-9.143585815E0,-1.625170441E0,8.067046417E0,1.643202543E0,4.339432120E-1,7.534337789E-2
8.075834417E0,-3.580254822E0,-8.567733307E0,-1.911674652E0,8.077089417E0,1.665482044E0,5.623852015E-1,-8.865425736E-2
8.085878417E0,-3.728147278E0,-7.720644836E0,-2.127376099E0,8.087133417E0,1.635140896E0,6.899655461E-1,-1.512976736E-1
8.095921417E0,-3.862118683E0,-7.041207733E0,-2.228116608E0,8.097176417E0,1.588198066E0,7.754183412E-1,-1.495445967E-1
8.105965417E0,-3.698957977E0,-6.394552460E0,-2.222727814E0,8.107220417E0,1.512299299E0,7.941560745E-1,-7.606132329E-2
8.116008417E0,-3.602857819E0,-6.053561554E0,-2.037263489E0,8.117263417E0,1.399030924E0,7.339019775E-1,3.403026611E-2
8.126052417E0,-3.417243805E0,-6.140381012E0,-1.947899323E0,8.127307417E0,1.226373911E0,4.748483002E-1,1.381516159E-1
8.136095417E0,-2.954106903E0,-6.709796906E0,-1.938768311E0,8.137350417E0,1.034107685E0,1.459990144E-1,2.135557830E-1
8.146139417E0,-2.496807861E0,-7.579039307E0,-1.675615540E0,8.147394417E0,8.978917003E-1,-1.106319726E-1,2.406923175E-1
8.156182417E0,-1.999691620E0,-8.254883881E0,-1.299747162E0,8.157437417E0,8.668001890E-1,-2.299734056E-1,2.538372576E-1
8.166226417E0,-1.686093750E0,-8.706045685E0,-9.240284729E-1,8.167481417E0,9.230384231E-1,-2.288649976E-1,2.692415416E-1
8.176269417E0,-1.473984833E0,-8.912915497E0,-7.473957825E-1,8.177524417E0,1.030874968E0,-1.192796007E-1,2.879697680E-1
8.186313417E0,-1.402583313E0,-9.070088654E0,-6.893165588E-1,8.187568417E0,1.152329803E0,4.819807410E-2,3.142572939E-1
8.196356417E0,-1.288819885E0,-9.300010529E0,-9.301657104E-1,8.197611417E0,1.193806410E0,2.019893527E-1,3.295252919E-1
8.206400417E0,-1.217717743E0,-9.709708557E0,-1.689686279E0,8.207655417E0,1.139419317E0,2.549998462E-1,3.412820697E-1
8.216443417E0,-1.299597473E0,-1.003498215E1,-2.390379181E0,8.217698417E0,1.012749672E0,2.261617929E-1,3.500443995E-1
8.226486417E0,-1.624871063E0,-9.955796814E0,-2.714305573E0,8.227741417E0,8.768314719E-1,1.316059977E-1,3.860543370E-1
8.236530417E0,-2.009870453E0,-9.558373260E0,-2.941982117E0,8.237785417E0,7.492485046E-1,5.950817466E-2,4.471542835E-1
8.246573417E0,-2.367177429E0,-9.032217407E0,-3.207829285E0,8.247828417E0,6.412424445E-1,3.447791934E-2,5.320398211E-1
8.256617417E0,-2.367776184E0,-8.639134827E0,-3.354973297E0,8.257872417E0,5.906579494E-1,1.154267490E-1,6.296411753E-1
8.266660417E0,-2.275418243E0,-8.293952637E0,-3.116668854E0,8.267915417E0,5.705491900E-1,2.465533465E-1,7.216046453E-1
8.276704417E0,-2.157613220E0,-8.040379944E0,-2.906056824E0,8.277959417E0,5.920738578E-1,3.440137208E-1,8.018540740E-1
8.286747417E0,-2.093845825E0,-8.015232239E0,-2.760858765E0,8.288002417E0,6.081910729E-1,3.365118504E-1,8.592057824E-1
8.296791417E0,-2.033970337E0,-8.226293335E0,-2.761756897E0,8.298046417E0,6.159802079E-1,3.091451228E-1,8.860471845E-1
8.306834417E0,-1.860780487E0,-8.626560974E0,-2.473755798E0,8.308089417E0,6.041334271E-1,2.530413866E-1,8.460624814E-1
8.316878417E0,-1.354533234E0,-9.126072235E0,-2.328557739E0,8.318133417E0,5.623055100E-1,1.738125980E-1,7.569158077E-1
8.326921417E0,-8.252339172E-1,-9.663454742E0,-2.177671509E0,8.328176417E0,4.781104922E-1,1.010641605E-1,6.262063384E-1
8.336965417E0,-2.598596191E-1,-1.007180557E1,-1.672621765E0,8.338220417E0,3.679733276E-1,-5.171812326E-2,4.753284752E-1
8.347008417E0,3.805087280E-1,-1.029768585E1,-1.146914978E0,8.348263417E0,3.009780645E-1,-2.759019434E-1,3.123624623E-1
8.357052417E0,1.029109955E0,-1.037522461E1,-1.044827271E0,8.358307417E0,3.053510487E-1,-5.036129355E-1,1.467204392E-1
8.367095417E0,1.136885834E0,-1.044333298E1,-1.529669037E0,8.368350417E0,3.402840197E-1,-6.676599383E-1,1.338821650E-2
8.377139417E0,5.996530151E-1,-1.051428543E1,-2.189945984E0,8.378394417E0,3.545718789E-1,-7.373631001E-1,-9.274620563E-2
8.387182417E0,-4.171824646E-1,-1.079300583E1,-2.260449371E0,8.388437417E0,2.804014981E-1,-8.499370813E-1,-2.045606375E-1
8.397226417E0,-1.805395660E0,-1.160087585E1,-2.235900421E0,8.398481417E0,2.002760172E-1,-9.469384551E-1,-2.758105695E-1
8.407269417E0,-3.480262756E0,-1.264884659E1,-2.422412567E0,8.408524417E0,1.702659279E-1,-8.237491250E-1,-3.174706697E-1
8.417313417E0,-4.328548737E0,-1.342797638E1,-1.861528931E0,8.418568417E0,1.321837455E-1,-6.108108163E-1,-4.038423896E-1
8.427356417E0,-4.343517609E0,-1.363095428E1,-8.617579651E-1,8.428611417E0,3.459406644E-2,-5.226380825E-1,-5.137254596E-1
8.437400417E0,-4.205953674E0,-1.333771408E1,-5.504054260E-1,8.438655417E0,-5.660026520E-2,-4.673006535E-1,-6.187108755E-1
8.447443417E0,-3.921245728E0,-1.308953018E1,-3.159928894E-1,8.448698417E0,-1.989994943E-1,-4.084788561E-1,-7.045013905E-1
8.457487417E0,-4.134402466E0,-1.325688217E1,9.086105347E-2,8.458742417E0,-4.100485742E-1,-3.389542103E-1,-7.425686717E-1
8.467530417E0,-4.451892242E0,-1.343111984E1,7.089257812E-1,8.468785417E0,-6.415752769E-1,-3.165804744E-1,-7.635408044E-1
8.477574417E0,-4.070485382E0,-1.297172516E1,1.138382721E0,8.478829417E0,-7.723361254E-1,-3.013644218E-1,-7.829591036E-1
8.487617417E0,-3.683839417E0,-1.188423660E1,1.367406464E0,8.488872417E0,-9.054701924E-1,-2.048818171E-1,-8.076958656E-1
8.497661417E0,-3.605103149E0,-1.062999481E1,1.240171051E0,8.498916417E0,-1.070401788E0,-2.857165039E-2,-8.469426036E-1
8.507704417E0,-3.950435028E0,-9.494456177E0,1.155746613E0,8.508959417E0,-1.264718056E0,2.131158113E-1,-8.840156794E-1
8.517748417E0,-4.529281311E0,-8.966953125E0,1.052162018E0,8.519003417E0,-1.445096612E0,4.204354584E-1,-9.037472606E-1
8.527791417E0,-4.946014709E0,-9.030121765E0,6.697073364E-1,8.529046417E0,-1.627145171E0,5.346804857E-1,-8.984555602E-1
8.537835417E0,-5.382357330E0,-9.258097687E0,-1.131646729E-1,8.539090417E0,-1.801627040E0,5.331124663E-1,-8.530385494E-1
8.547878417E0,-6.105353851E0,-9.614955597E0,-8.192463684E-1,8.549133417E0,-1.916719198E0,4.437964261E-1,-6.846982837E-1
8.557922417E0,-6.866820374E0,-1.038001465E1,-1.243913269E0,8.559177417E0,-1.939688325E0,3.930775821E-1,-4.540557265E-1
8.567965417E0,-7.657775574E0,-1.147633484E1,-1.145717468E0,8.569220417E0,-1.799541593E0,4.250560105E-1,-2.031089962E-1
8.578008417E0,-8.325836334E0,-1.215592163E1,-6.107299805E-1,8.579263417E0,-1.546964407E0,6.209593415E-1,3.132647276E-2
8.588052417E0,-8.257129211E0,-1.212792984E1,-2.903961182E-1,8.589307417E0,-1.304690480E0,8.906555176E-1,3.657662868E-2
8.598095417E0,-7.455695801E0,-1.143846359E1,-5.307962036E-1,8.599350417E0,-1.106028914E0,1.005122066E0,-2.822853923E-1
8.608139417E0,-7.083719330E0,-1.069735474E1,-7.180567932E-1,8.609394417E0,-9.077784419E-1,7.883813977E-1,-1.548520774E-1
8.618182417E0,-6.547534332E0,-1.017853363E1,-4.499642944E-1,8.619437417E0,-8.166802526E-1,5.980222821E-1,8.988008648E-2
8.628226417E0,-4.868775330E0,-9.199868774E0,-4.372407532E-1,8.629481417E0,-8.440439701E-1,6.257138252E-1,2.366663367E-1
8.638269417E0,-3.188968506E0,-8.488098907E0,-6.788383484E-1,8.639524417E0,-8.687738180E-1,6.091462970E-1,3.098827302E-1
8.648313417E0,-2.018402710E0,-8.464897156E0,-4.526586914E-1,8.649568417E0,-8.642576337E-1,5.773846507E-1,3.579469323E-1
8.658356167E0,-1.649120636E0,-8.972491608E0,-5.764512634E-1,8.659611167E0,-8.850412369E-1,5.089563131E-1,3.902113736E-1
8.668400167E0,-1.448388062E0,-8.968000946E0,-1.261875916E0,8.669655167E0,-9.759892225E-1,2.928504050E-1,3.796652555E-1
8.678443167E0,-1.122216339E0,-8.620124359E0,-1.907483368E0,8.679698167E0,-1.083723187E0,1.428279653E-2,3.625612855E-1
8.688487167E0,-1.231489105E0,-8.148305511E0,-1.815574493E0,8.689742167E0,-1.144471288E0,-2.581207752E-1,3.740853369E-1
8.698530167E0,-1.351539459E0,-7.462581482E0,-1.535357208E0,8.699785167E0,-1.215240598E0,-4.942916632E-1,3.424182832E-1
8.708574167E0,-9.035211182E-1,-6.805747375E0,-1.677262115E0,8.709829167E0,-1.319822431E0,-7.202382088E-1,2.608107924E-1
8.718617167E0,-3.647914124E-1,-6.569987640E0,-1.946552124E0,8.719872167E0,-1.442794442E0,-9.029675126E-1,1.687922478E-1
8.728661167E0,-1.332229614E-1,-6.690337372E0,-2.315085754E0,8.729916167E0,-1.572779655E0,-1.066769481E0,5.335141346E-2
8.738704167E0,1.092727661E-2,-6.780899048E0,-2.640509033E0,8.739959167E0,-1.672184706E0,-1.192644358E0,-9.173232317E-2
8.748748167E0,-1.417552185E-1,-6.815626831E0,-2.849923553E0,8.750003167E0,-1.712459445E0,-1.247621298E0,-2.233433425E-1
8.758791167E0,-6.248007202E-1,-6.806495819E0,-2.942730560E0,8.760046167E0,-1.658592582E0,-1.234647393E0,-3.408965766E-1
8.768835167E0,-1.134490814E0,-6.469546509E0,-2.776276703E0,8.770090167E0,-1.498396039E0,-1.093595743E0,-4.456216395E-1
8.778878167E0,-1.491797791E0,-5.833968201E0,-2.334096222E0,8.780133167E0,-1.268411398E0,-8.485718966E-1,-5.359265208E-1
8.788922167E0,-1.843117218E0,-5.302273865E0,-1.744023285E0,8.790177167E0,-9.948379397E-1,-5.752005577E-1,-6.091845036E-1
8.798965167E0,-2.279759216E0,-4.945715332E0,-1.570983124E0,8.800220167E0,-7.118743062E-1,-3.637394309E-1,-6.560521126E-1
8.809009167E0,-2.580334167E0,-4.855003967E0,-1.786834259E0,8.810264167E0,-4.438578188E-1,-2.756449878E-1,-6.709479690E-1
8.819052167E0,-2.831062775E0,-4.865182800E0,-2.084714813E0,8.820307167E0,-2.039335370E-1,-3.086329699E-1,-6.510986090E-1
8.829096167E0,-2.915187836E0,-4.918022919E0,-2.396217041E0,8.830351167E0,2.914899215E-2,-3.909781873E-1,-5.980090499E-1
8.839139167E0,-2.694247284E0,-4.948559418E0,-2.755020905E0,8.840394167E0,2.513600886E-1,-4.600647390E-1,-5.625625253E-1
8.849183167E0,-2.208208008E0,-4.832101593E0,-3.050356750E0,8.850438167E0,5.024018884E-1,-4.569171667E-1,-5.342965126E-1
8.859226167E0,-1.704655151E0,-4.580325165E0,-3.153941345E0,8.860481167E0,7.553238273E-1,-3.860019743E-1,-5.248399377E-1
8.869270167E0,-1.238225098E0,-4.178111572E0,-3.378474426E0,8.870525167E0,9.970771074E-1,-2.575204372E-1,-5.291917920E-1
8.879313167E0,-1.108894043E0,-3.942052460E0,-3.520529022E0,8.880568167E0,1.166499019E0,-2.193536982E-2,-4.944665730E-1
8.889357167E0,-1.355281677E0,-4.171225891E0,-3.857178955E0,8.890612167E0,1.215733886E0,2.048588991E-1,-4.178884327E-1
8.899400167E0,-1.738784180E0,-4.762795715E0,-4.484225006E0,8.900655167E0,1.157359838E0,4.655418694E-1,-3.424448669E-1
8.909444167E0,-2.097438354E0,-5.948629761E0,-5.054239655E0,8.910699167E0,9.588965178E-1,7.631887794E-1,-2.747731507E-1
8.919487167E0,-2.236948242E0,-7.889643402E0,-5.924829254E0,8.920742167E0,5.751473904E-1,8.598604202E-1,-2.180014253E-1
8.929530167E0,-2.146685944E0,-1.041100021E1,-7.118896179E0,8.930785167E0,1.260771900E-1,6.815798879E-1,-1.584683210E-1
8.939574167E0,-2.863395538E0,-1.344893280E1,-7.295379181E0,8.940829167E0,-1.836545914E-1,3.832615018E-1,-1.367253661E-1
8.949617167E0,-3.619922333E0,-1.646096924E1,-6.268664246E0,8.950872167E0,-3.031852841E-1,6.562231481E-2,-2.579551041E-1
8.959661167E0,-3.054847412E0,-1.681782715E1,-5.429808655E0,8.960916167E0,-3.646578491E-1,-2.209108919E-1,-4.189032018E-1
8.969704167E0,-2.108365631E0,-1.538380920E1,-6.017037506E0,8.970959167E0,-3.219705820E-1,-2.095983028E-1,-3.991619945E-1
8.979748167E0,-3.064128113E0,-1.357811417E1,-6.242618408E0,8.981003167E0,-3.441422284E-1,-3.403887451E-1,-2.953108847E-1
8.989791167E0,-2.844684448E0,-1.122934845E1,-8.293653259E0,8.991046167E0,-5.803563595E-1,-5.279008746E-1,-1.420526505E-1
8.999835167E0,-2.188000031E0,-9.043294373E0,-9.888137512E0,9.001090167E0,-9.673668146E-1,-4.270201325E-1,-1.927731559E-2
9.009878167E0,-1.415157166E0,-8.070617065E0,-1.004650818E1,9.011133167E0,-1.307156920E0,-1.085113958E-1,1.009950340E-1
9.019922167E0,-1.141226807E0,-8.909921722E0,-8.641829224E0,9.021177167E0,-1.416172743E0,-9.728923440E-3,1.116285026E-1
9.029965167E0,-7.086264038E-1,-1.045021866E1,-6.356830902E0,9.031220167E0,-1.363453031E0,-2.563651651E-2,-6.695450284E-4
9.040009167E0,-6.686595154E-1,-1.230531097E1,-4.950355682E0,9.041264167E0,-1.265034556E0,1.432896703E-1,-1.507884264E-1
9.050052167E0,-1.836680603E0,-1.400592453E1,-4.051474915E0,9.051307167E0,-1.110503793E0,2.939148843E-1,-2.429204732E-1
9.060096167E0,-3.624263306E0,-1.478176117E1,-2.742896118E0,9.061351167E0,-7.897524834E-1,2.731953561E-1,-2.538110912E-1
9.070139167E0,-5.310656433E0,-1.501572464E1,-8.848100281E-1,9.071394167E0,-3.096215725E-1,4.836278036E-2,-2.770860493E-1
9.080183167E0,-5.970035248E0,-1.319206696E1,-6.556365967E-2,9.081438167E0,1.041295901E-1,-2.488464266E-1,-2.142411917E-1
9.090226167E0,-6.613247681E0,-9.591903534E0,-1.468745728E0,9.091481167E0,3.021595776E-1,-3.434483111E-1,-1.060428172E-1
9.100270167E0,-7.376360779E0,-7.237000580E0,-2.856958923E0,9.101525167E0,4.371001720E-1,-7.495038211E-2,6.514209509E-2
9.110313167E0,-7.729775848E0,-6.773564301E0,-3.192860413E0,9.111568167E0,4.921983182E-1,1.873779148E-1,2.206453979E-1
9.120357167E0,-7.157366180E0,-6.903045044E0,-3.490740967E0,9.121612167E0,4.561181366E-1,2.349920422E-1,3.476086855E-1
9.130400167E0,-6.352489929E0,-7.079528046E0,-3.056493988E0,9.131655167E0,4.595075548E-1,1.086695269E-1,4.475044012E-1
9.140444167E0,-5.567222900E0,-7.146139526E0,-1.402882690E0,9.141699167E0,5.734831691E-1,1.882725395E-3,5.379164815E-1
9.150487167E0,-4.320914612E0,-7.206913147E0,4.840933228E-1,9.151742167E0,7.680904269E-1,-4.028230533E-2,5.769301653E-1
9.160531167E0,-2.635120239E0,-7.353009338E0,1.726360016E0,9.161786167E0,9.591228366E-1,-7.334740460E-2,5.365900993E-1
9.170574167E0,-1.365610199E0,-7.930059357E0,1.875150604E0,9.171829167E0,1.063256621E0,-1.122513935E-1,4.902535081E-1
9.180618167E0,-8.434959412E-1,-8.709488525E0,1.016236725E0,9.181873167E0,1.075495839E0,-1.130339205E-1,4.873254895E-1
9.190661167E0,-8.901988220E-1,-9.197324066E0,-6.915618896E-2,9.191916167E0,1.021608949E0,-7.604341209E-2,5.235037208E-1
9.200705167E0,-1.078207855E0,-9.243727570E0,-9.539662170E-1,9.201960167E0,9.772528410E-1,-8.286283351E-3,6.016176939E-1
9.210748167E0,-1.755699005E0,-9.145232391E0,-1.254840546E0,9.212003167E0,1.006622434E0,4.347065464E-2,6.860521436E-1
9.220791167E0,-2.539618835E0,-8.988807678E0,-1.061891785E0,9.222046167E0,1.099028111E0,9.697660804E-3,7.328466177E-1
9.230835167E0,-3.035836945E0,-8.972790985E0,-5.872288513E-1,9.232090167E0,1.249622703E0,5.090501904E-2,7.025979161E-1
9.240878167E0,-3.398383026E0,-9.058562622E0,-2.658471680E-1,9.242133167E0,1.442777872E0,2.311273366E-1,5.986402035E-1
9.250922167E0,-3.805386658E0,-9.313033447E0,-5.016069031E-1,9.252177167E0,1.624516726E0,4.593703747E-1,4.599252045E-1
9.260965167E0,-4.064198456E0,-9.236841888E0,-1.099014587E0,9.262220167E0,1.760715127E0,6.070507765E-1,2.766340673E-1
9.271009167E0,-3.973038025E0,-8.615633698E0,-1.777254181E0,9.272264167E0,1.794917226E0,7.207091451E-1,1.142576858E-1
9.281052167E0,-3.935166779E0,-7.837701416E0,-2.478845215E0,9.282307167E0,1.734599829E0,7.927906513E-1,2.344051935E-2
9.291096167E0,-3.803889771E0,-7.142546997E0,-2.938688965E0,9.292351167E0,1.640817165E0,9.162510633E-1,5.764319096E-3
9.301139167E0,-3.655099182E0,-6.696773987E0,-2.763403473E0,9.302394167E0,1.553472161E0,1.039428830E0,3.833686560E-2
9.311183167E0,-3.253334656E0,-6.559509430E0,-2.343676300E0,9.312438167E0,1.453586817E0,1.024858475E0,6.853897870E-2
9.321226167E0,-2.776725769E0,-6.746919708E0,-2.064656525E0,9.322481167E0,1.305263996E0,8.842939138E-1,1.202296466E-1
9.331270167E0,-2.498903503E0,-7.275620270E0,-1.881287842E0,9.332525167E0,1.113987207E0,5.867759585E-1,1.537319422E-1
9.341313167E0,-2.083367615E0,-7.786956940E0,-1.731299744E0,9.342568167E0,9.478895068E-1,2.803729475E-1,1.626892835E-1
9.351357167E0,-1.768123169E0,-8.181386719E0,-1.447190552E0,9.352612167E0,8.564019203E-1,4.040082172E-2,1.731581688E-1
9.361400167E0,-1.366059265E0,-8.360713806E0,-9.991722107E-1,9.362655167E0,8.609157801E-1,-6.755703688E-2,1.678976864E-1
9.371444167E0,-1.191522217E0,-8.244405670E0,-5.480104065E-1,9.372699167E0,9.407802820E-1,-5.262655765E-2,2.243130207E-1
9.381487167E0,-1.585053864E0,-8.382268982E0,-3.796105957E-1,9.382742167E0,1.080098867E0,3.687844798E-2,3.049856126E-1
9.391531167E0,-1.733545074E0,-8.632249146E0,-2.486329651E-1,9.392786167E0,1.237785220E0,1.193853095E-1,3.399270773E-1
9.401574167E0,-1.654359741E0,-8.920250244E0,-4.269122314E-1,9.402829167E0,1.334829569E0,1.962348968E-1,3.741653264E-1
9.411618167E0,-1.947001190E0,-9.156908112E0,-9.831555176E-1,9.412873167E0,1.334215403E0,2.184248865E-1,4.174638093E-1
9.421661167E0,-2.143692169E0,-9.159602509E0,-1.983076172E0,9.422916167E0,1.216353536E0,2.096963674E-1,4.397075772E-1
9.431705167E0,-2.301314392E0,-8.889564056E0,-2.804268494E0,9.432960167E0,1.052420020E0,2.505607307E-1,4.989144206E-1
9.441748167E0,-2.908302155E0,-8.466693420E0,-3.154689789E0,9.443003167E0,9.023947716E-1,3.498600423E-1,5.940834880E-1
9.451792167E0,-3.276536407E0,-8.058043213E0,-3.349734192E0,9.453047167E0,7.711965442E-1,4.593819976E-1,7.028650641E-1
9.461835167E0,-3.252885590E0,-7.923772430E0,-3.479364624E0,9.463090167E0,6.430076957E-1,5.644573569E-1,8.018446565E-1
9.471879167E0,-2.927612000E0,-8.166567535E0,-3.514391785E0,9.473134167E0,5.648005009E-1,6.479298472E-1,8.522596359E-1
9.481922167E0,-2.357747040E0,-8.665480042E0,-3.163521423E0,9.483177167E0,5.629733801E-1,7.316631675E-1,8.485316038E-1
9.491965167E0,-1.828896790E0,-8.981472931E0,-2.483635254E0,9.493220167E0,5.961899161E-1,7.710872293E-1,8.092460036E-1
9.502009167E0,-1.782044220E0,-9.166039124E0,-1.985770569E0,9.503264167E0,6.252696514E-1,6.923320293E-1,7.485634685E-1
9.512052167E0,-1.740730133E0,-9.394464111E0,-2.074535980E0,9.513307167E0,6.271820664E-1,5.349269509E-1,6.789612174E-1
9.522096167E0,-1.144519958E0,-9.617051239E0,-2.206112366E0,9.523351167E0,5.469394922E-1,3.907099962E-1,5.661410689E-1
9.532139167E0,-1.375639343E-1,-1.000474503E1,-2.009571075E0,9.533394167E0,4.110756218E-1,2.172093242E-1,4.220927954E-1
9.542183167E0,7.906558228E-1,-1.042402313E1,-1.495390320E0,9.543438167E0,3.037389815E-1,-2.698524296E-2,2.563221753E-1
9.552226167E0,1.437760162E0,-1.067385361E1,-1.200204163E0,9.553481167E0,2.544542551E-1,-3.175241351E-1,8.653368801E-2
9.562270167E0,1.625020752E0,-1.081620758E1,-1.197360077E0,9.563525167E0,2.431198955E-1,-6.101098061E-1,-1.127167195E-1
9.572313167E0,1.211580505E0,-1.109432922E1,-1.265169067E0,9.573568167E0,2.172073424E-1,-8.636411428E-1,-3.343359232E-1
9.582357167E0,3.697311401E-2,-1.155806488E1,-1.199455719E0,9.583612167E0,1.903840303E-1,-1.071964264E0,-5.298997164E-1
9.592400167E0,-1.728006592E0,-1.235425919E1,-1.045126648E0,9.593655167E0,1.703639925E-1,-1.172111869E0,-7.143813968E-1
9.602444167E0,-3.312910767E0,-1.350656296E1,-4.471202087E-1,9.603699167E0,1.433458328E-1,-1.174114585E0,-9.074655771E-1
9.612487167E0,-4.099524994E0,-1.449211349E1,6.262976074E-1,9.613742167E0,1.130539775E-1,-1.180577278E0,-1.083649874E0
9.622531167E0,-4.379891968E0,-1.444181808E1,7.155120850E-1,9.623786167E0,1.187147386E-2,-1.067789316E0,-1.189141631E0
9.632574167E0,-5.181924133E0,-1.353141129E1,-3.748205566E-1,9.633829167E0,-1.302715540E-1,-8.154048324E-1,-1.189362884E0
9.642618167E0,-5.791606293E0,-1.335672455E1,-2.679428101E-1,9.643873167E0,-2.174423337E-1,-5.298508406E-1,-1.095385194E0
9.652660917E0,-6.307283936E0,-1.329804657E1,5.493576050E-2,9.653915917E0,-2.622175515E-1,-2.695066333E-1,-9.426590800E-1
9.662704917E0,-6.735543365E0,-1.278775772E1,-2.109114075E-1,9.663959917E0,-3.093818724E-1,-4.918924719E-2,-7.791935205E-1
9.672747917E0,-7.176077271E0,-1.235815109E1,-3.677851868E-1,9.674002917E0,-3.401949108E-1,2.451134771E-1,-6.065818071E-1
9.682791917E0,-7.298672333E0,-1.193767548E1,2.002835083E-1,9.684046917E0,-3.187420666E-1,5.277540684E-1,-4.376685917E-1
9.692834917E0,-6.662046204E0,-1.096844101E1,8.693920898E-1,9.694089917E0,-3.347372711E-1,6.505260468E-1,-2.944440544E-1
9.702878917E0,-5.816304932E0,-9.448950806E0,1.143322449E0,9.704133917E0,-4.281758368E-1,6.567125916E-1,-1.541721374E-1
9.712921917E0,-5.645959167E0,-8.206684113E0,1.014590149E0,9.714176917E0,-6.386222839E-1,7.109540105E-1,-3.916671127E-2
9.722965917E0,-5.975723419E0,-7.766449585E0,5.432203674E-1,9.724220917E0,-9.147766232E-1,7.811996937E-1,3.746119887E-2
9.733008917E0,-6.196514282E0,-7.675588531E0,-3.457809448E-2,9.734263917E0,-1.211994410E0,7.972569466E-1,8.467291296E-2
9.743052917E0,-6.127956848E0,-8.001161499E0,-5.562432861E-1,9.744307917E0,-1.468606472E0,6.869539022E-1,9.495325387E-2
9.753095917E0,-5.831573181E0,-8.393345947E0,-6.505471802E-1,9.754350917E0,-1.623409390E0,5.201625228E-1,1.047446281E-1
9.763138917E0,-6.013145599E0,-9.105714569E0,-5.002597046E-1,9.764393917E0,-1.670928240E0,4.542522132E-1,1.290119290E-1
9.773182917E0,-6.429429932E0,-1.021685394E1,-4.354444885E-1,9.774437917E0,-1.599281549E0,5.950530171E-1,1.086334214E-1
9.783225917E0,-6.641987915E0,-1.080947159E1,-4.447251892E-1,9.784480917E0,-1.453013659E0,9.672552347E-1,4.513236508E-2
9.793269917E0,-6.784491577E0,-1.090302704E1,-7.134164429E-1,9.794524917E0,-1.300924540E0,1.426955581E0,-7.935646921E-3
9.803312917E0,-6.339017944E0,-1.084240311E1,-9.616003418E-1,9.804567917E0,-1.163768649E0,1.751058340E0,-8.416051418E-2
9.813356917E0,-5.401966553E0,-1.045530807E1,-8.800199890E-1,9.814611917E0,-1.070469856E0,1.819551826E0,-1.180463061E-1
9.823399917E0,-4.687053223E0,-9.916278992E0,-5.942642212E-1,9.824654917E0,-1.035939574E0,1.684975624E0,-7.804995030E-2
9.833443917E0,-4.429289246E0,-9.228908386E0,-2.890489197E-1,9.834698917E0,-1.073421240E0,1.562911510E0,5.267823115E-2
9.843486917E0,-4.602628784E0,-8.707542572E0,-2.195933533E-1,9.844741917E0,-1.136229634E0,1.401666641E0,2.292156965E-1
9.853530917E0,-4.415218506E0,-8.165819092E0,-2.647993469E-1,9.854785917E0,-1.148651958E0,1.235559106E0,3.916416168E-1
9.863573917E0,-4.058360596E0,-7.959697723E0,-1.930984497E-1,9.864828917E0,-1.101166487E0,1.113306403E0,5.338042974E-1
9.873617917E0,-3.638034668E0,-8.088879089E0,-3.370989990E-1,9.874872917E0,-1.027099729E0,9.351430535E-1,5.948013067E-1
9.883660917E0,-2.798879700E0,-7.947572937E0,-7.923023987E-1,9.884915917E0,-9.798858166E-1,7.118170857E-1,6.043751836E-1
9.893704917E0,-2.099384308E0,-7.643405457E0,-1.325643311E0,9.894959917E0,-9.469563365E-1,4.925707579E-1,6.135532260E-1
9.903747917E0,-1.806892548E0,-7.345674591E0,-1.731898499E0,9.905002917E0,-9.230648279E-1,2.938250899E-1,6.200879812E-1
9.913791917E0,-1.621428223E0,-7.152875519E0,-2.175575867E0,9.915046917E0,-9.266777039E-1,1.342916340E-1,6.112324595E-1
9.923834917E0,-1.324445801E0,-7.091353455E0,-2.835254059E0,9.925089917E0,-9.795075059E-1,1.697781682E-2,5.197893977E-1
9.933878917E0,-9.156459045E-1,-7.275919647E0,-3.598067780E0,9.935133917E0,-1.050624847E0,-6.962924451E-2,4.106301665E-1
9.943921917E0,-8.177494812E-1,-7.491770782E0,-4.148173828E0,9.945176917E0,-1.095936060E0,-1.078414917E-1,2.714249492E-1
9.953965917E0,-6.372248840E-1,-7.619604950E0,-4.466861115E0,9.955220917E0,-1.094545960E0,-3.381760046E-2,1.292880774E-1
9.964008917E0,-6.801855469E-1,-7.686366119E0,-4.557722168E0,9.965263917E0,-1.034860373E0,9.355258197E-2,-6.765898317E-3
9.974052917E0,-7.653584290E-1,-7.469018097E0,-4.319118347E0,9.975307917E0,-9.210499525E-1,2.156444043E-1,-1.032037586E-1
9.984095917E0,-1.097068634E0,-7.269183655E0,-3.966751099E0,9.985350917E0,-7.832942009E-1,2.714761794E-1,-1.477044374E-1
9.994139917E0,-1.476230164E0,-7.085216217E0,-3.657045135E0,9.995394917E0,-6.359020472E-1,2.411781847E-1,-1.565181762E-1
1.000418292E1,-1.663790131E0,-6.682104492E0,-3.414699097E0,1.000543792E1,-5.215095282E-1,7.174366713E-2,-1.538493782E-1
1.001422592E1,-1.719624023E0,-6.144871674E0,-3.410507812E0,1.001548092E1,-3.987153769E-1,-1.335876435E-1,-9.957548976E-2
1.002426992E1,-1.785636749E0,-5.606441345E0,-3.327580261E0,1.002552492E1,-2.403851449E-1,-3.220983446E-1,-6.879860163E-2
1.003431292E1,-1.528471527E0,-4.982987823E0,-3.385210419E0,1.003556792E1,-4.585242271E-2,-4.444205463E-1,-5.392377824E-2
1.004435692E1,-1.272952881E0,-4.503684540E0,-3.468587036E0,1.004561192E1,1.662118733E-1,-4.921602905E-1,-6.462480128E-2
1.005439992E1,-1.002016296E0,-4.195924530E0,-3.510649567E0,1.005565492E1,3.788804710E-1,-4.928447008E-1,-1.117901877E-1
1.006444392E1,-9.027726746E-1,-3.969744873E0,-3.570824432E0,1.006569892E1,5.962892175E-1,-4.253578484E-1,-1.522031426E-1
1.007448692E1,-1.223705292E0,-3.827241211E0,-3.721261597E0,1.007574192E1,8.026354909E-1,-3.638209701E-1,-1.756935567E-1
