"time_acc","acc_x","acc_y","acc_z","time_gyro","gyro_x","gyro_y","gyro_z"
1.094041667E-3,1.460063782E0,-9.415570221E0,3.134631500E0,6.122041666E-3,-2.336792469E0,1.407674551E0,-1.669072151E0
1.115004167E-2,-1.124162292E-1,-8.719966736E0,1.007704468E0,1.617704167E-2,-2.334038973E0,1.788287878E0,-2.028807402E0
2.120504167E-2,-1.935624847E0,-8.482710114E0,-1.631307678E0,2.623304167E-2,-2.206322670E0,1.534593225E0,-2.125682354E0
3.126104167E-2,-2.907703400E0,-8.903784485E0,-3.162174225E0,3.628904167E-2,-2.171721697E0,1.078634977E0,-1.939449549E0
4.131704167E-2,-4.184847565E0,-1.019529877E1,-2.805316315E0,4.634504167E-2,-2.146786451E0,6.675004363E-1,-1.768428802E0
5.137204167E-2,-5.287754059E0,-1.172826096E1,-1.667981415E0,5.640004167E-2,-2.129421473E0,4.156585634E-1,-1.562389851E0
6.142804167E-2,-6.265221405E0,-1.395937134E1,-3.008743286E-2,6.645604167E-2,-2.189981461E0,5.236062407E-1,-1.273700953E0
7.148404167E-2,-7.683671722E0,-1.642354706E1,2.173929291E0,7.651204167E-2,-2.206360579E0,6.565317512E-1,-8.660634160E-1
8.154004167E-2,-9.240135040E0,-1.828866852E1,1.372046814E0,8.656804167E-2,-2.181739092E0,4.328006506E-1,-4.225274622E-1
9.159504167E-2,-1.029229706E1,-1.762914001E1,-1.414109344E0,9.662304167E-2,-2.161741018E0,1.206301898E-2,-2.475950569E-1
1.016510417E-1,-9.934241638E0,-1.414513504E1,-3.495830383E0,1.066790417E-1,-2.132544756E0,-2.680957317E-1,-4.167522490E-1
1.117070417E-1,-8.428073730E0,-1.124371857E1,-4.010460205E0,1.167350417E-1,-2.023605585E0,-6.616367400E-2,-7.214396596E-1
1.217630417E-1,-6.625222778E0,-1.037447617E1,-2.035467224E0,1.267900417E-1,-1.652063727E0,7.813907266E-1,-1.095054746E0
1.318180417E-1,-3.815266113E0,-9.594897308E0,8.857081604E-1,1.368460417E-1,-1.322467685E0,1.093875170E0,-1.111547947E0
1.418740417E-1,-1.046773224E0,-1.006506958E1,-5.643264771E-2,1.469020417E-1,-1.079784513E0,1.162804604E0,-1.208005190E0
1.519300417E-1,1.558259583E-1,-9.391170959E0,4.245172119E-1,1.569580417E-1,-9.877040982E-1,1.261857152E0,-1.479990721E0
1.619850417E-1,1.146016846E0,-9.423803101E0,7.216493225E-1,1.670130417E-1,-1.116808653E0,9.340801239E-1,-1.811776519E0
1.720410417E-1,1.816173248E0,-9.185498657E0,-1.203197937E0,1.770690417E-1,-1.520548105E0,1.394945979E-1,-1.916707158E0
1.820970417E-1,9.330097961E-1,-9.452094269E0,-2.233206024E0,1.871250417E-1,-1.774572849E0,-4.346611500E-1,-1.681387663E0
1.921530417E-1,-6.777905273E-1,-8.386909332E0,-1.355880432E0,1.971810417E-1,-1.864773035E0,-8.816202879E-1,-1.515559554E0
2.022080417E-1,-1.168320465E0,-6.828350372E0,-1.121617584E0,2.072360417E-1,-1.845912337E0,-1.424198508E0,-1.524419188E0
2.122640417E-1,-1.263223114E0,-5.590574341E0,-1.367705841E0,2.172920417E-1,-1.756217360E0,-1.913857579E0,-1.622958541E0
2.223200417E-1,-1.296004944E0,-4.456233215E0,-1.033301239E0,2.273480417E-1,-1.625893235E0,-1.979138732E0,-1.591068983E0
2.323760417E-1,-1.258283386E0,-3.943399658E0,-3.585044861E-1,2.374040417E-1,-1.412319541E0,-2.064927578E0,-1.556410074E0
2.424310417E-1,-1.147513733E0,-3.484004974E0,-7.267387390E-1,2.474590417E-1,-1.176170945E0,-2.354961157E0,-1.500724435E0
2.524870417E-1,-1.231638794E0,-3.467239838E0,-4.912783813E-1,2.575150417E-1,-1.109506130E0,-2.497214317E0,-1.406575322E0
2.625430417E-1,-1.285975800E0,-3.403322754E0,5.631289673E-1,2.675710417E-1,-9.960627556E-1,-2.550937176E0,-1.217752934E0
2.725990417E-1,-9.165440369E-1,-3.220103760E0,4.387376404E-1,2.776260417E-1,-8.522416949E-1,-2.689690590E0,-1.013511896E0
2.826540417E-1,-7.934999084E-1,-3.157234497E0,4.715194702E-2,2.876820417E-1,-6.311672926E-1,-2.687280655E0,-8.267736435E-1
2.927100417E-1,-1.048419800E0,-3.224594421E0,9.610015869E-2,2.977380417E-1,-3.876347542E-1,-2.747658491E0,-6.408790946E-1
3.027660417E-1,-1.316512299E0,-3.252735901E0,-3.335064697E-1,3.077940417E-1,-1.048352197E-1,-2.771111250E0,-4.704596996E-1
3.128220417E-1,-1.707648926E0,-3.352877655E0,-1.707948303E-1,3.178490417E-1,1.965544373E-1,-2.696884155E0,-3.184699118E-1
3.228770417E-1,-2.022743683E0,-3.376378784E0,-1.805245972E-1,3.279050417E-1,4.114324749E-1,-2.721717358E0,-1.733366996E-1
3.329330417E-1,-2.133213959E0,-3.603306885E0,-1.138532410E0,3.379610417E-1,6.226512790E-1,-2.779473543E0,1.846560393E-3
3.429890417E-1,-1.947599945E0,-3.951482849E0,-1.918410645E0,3.480170417E-1,8.648310900E-1,-2.801447868E0,2.483684421E-1
3.530440417E-1,-1.589394836E0,-4.322261810E0,-2.514770508E0,3.580720417E-1,1.125814676E0,-2.680535793E0,5.224244595E-1
3.631000417E-1,-1.148860931E0,-4.448449402E0,-2.626288605E0,3.681280417E-1,1.343598247E0,-2.443503618E0,7.581903338E-1
3.731560417E-1,-7.119195557E-1,-4.896467743E0,-2.808010712E0,3.781840417E-1,1.559072733E0,-2.171394110E0,9.260246158E-1
3.832120417E-1,-5.309458923E-1,-5.711822205E0,-2.869532776E0,3.882390417E-1,1.740247726E0,-1.784120202E0,1.063370943E0
3.932670417E-1,-1.001716919E0,-6.614894257E0,-2.287692719E0,3.982950417E-1,1.738547921E0,-1.319136739E0,1.065653443E0
4.033230417E-1,-1.967059479E0,-7.569010162E0,-2.541714478E0,4.083510417E-1,1.448910356E0,-1.188743234E0,1.025238514E0
4.133790417E-1,-3.090024261E0,-9.870623932E0,-6.134243774E0,4.184070417E-1,7.726418972E-1,-1.603017092E0,1.048544407E0
4.234350417E-1,-3.938160553E0,-1.331840424E1,-1.173634415E1,4.284620417E-1,2.557168528E-2,-2.116673708E0,9.705957770E-1
4.334900417E-1,-2.947520599E0,-1.763827103E1,-1.336241272E1,4.385180417E-1,-6.273432970E-1,-2.156247616E0,3.898431957E-1
4.435460417E-1,2.302212524E-1,-2.221605148E1,-1.101619171E1,4.485740417E-1,-1.188621283E0,-2.166366577E0,-4.784518182E-1
4.536020417E-1,3.141217804E0,-2.522913574E1,-1.075393707E1,4.586300417E-1,-1.167139649E0,-1.529098392E0,-1.118105054E0
4.636570417E-1,2.818638611E0,-2.232382736E1,-7.070397034E0,4.686850417E-1,-1.231005549E0,-7.581821084E-1,-1.386791587E0
4.737130417E-1,1.015637970E0,-1.527842834E1,-5.434748383E0,4.787410417E-1,-1.415196896E0,-5.603723526E-1,-1.457519770E0
4.837690417E-1,-6.855743408E-2,-1.066113007E1,-7.509883118E0,4.887970417E-1,-1.284547329E0,-6.560999751E-1,-1.439688206E0
4.938250417E-1,-4.700225830E-2,-8.432265015E0,-8.716523895E0,4.988520417E-1,-9.378353953E-1,-7.393716574E-1,-1.297851682E0
5.038800417E-1,9.372010803E-1,-6.908433838E0,-8.283923492E0,5.089080417E-1,-7.306966186E-1,-6.492598057E-1,-1.026466608E0
5.139360417E-1,1.648372192E0,-5.710175629E0,-7.114704895E0,5.189640417E-1,-6.248500943E-1,-5.025295019E-1,-7.072606683E-1
5.239920417E-1,1.440604248E0,-4.659660187E0,-6.606960754E0,5.290200417E-1,-6.344014406E-1,-4.362131059E-1,-3.624376357E-1
5.340480417E-1,7.750881958E-1,-3.642675018E0,-7.704777832E0,5.390750417E-1,-5.994858146E-1,-4.252206385E-1,8.203010075E-3
5.441030417E-1,6.007008362E-1,-3.584745483E0,-9.443711700E0,5.491310417E-1,1.510367692E-1,3.224532604E-1,3.950869143E-1
5.541590417E-1,2.230361938E-1,-4.000730438E0,-1.913770294E0,5.591870417E-1,5.880804062E-1,1.260908365E0,6.437212229E-1
5.642150417E-1,-2.941233673E0,-4.806355133E0,3.139870605E0,5.692430417E-1,9.199420214E-1,1.168120503E0,9.309406877E-1
5.742700417E-1,-8.550219727E0,-1.034618500E1,-3.841012573E-1,5.792980417E-1,1.336044788E0,1.028575182E0,1.216262460E0
5.843260417E-1,-1.386372025E1,-1.565384766E1,2.114652557E0,5.893540417E-1,1.518522382E0,9.569085240E-1,1.353515625E0
5.943820417E-1,-1.742256958E1,-1.999407211E1,3.308569794E0,5.994100417E-1,1.389541507E0,8.066303730E-1,9.644429684E-1
6.044380417E-1,-1.762060776E1,-1.963661545E1,9.487271118E-1,6.094660417E-1,8.632826209E-1,1.062043786E0,5.277212858E-1
6.144930417E-1,-9.771080933E0,-1.618434448E1,6.472540283E-1,6.195210417E-1,3.827492893E-1,1.666416168E0,2.534750700E-1
6.245490417E-1,-5.577401733E-1,-1.432401306E1,4.657265167E0,6.295770417E-1,6.231285334E-1,1.657833576E0,1.513486635E-2
6.346050417E-1,7.493417358E-1,-1.266665955E1,8.209977264E0,6.396330417E-1,8.672674298E-1,1.888835311E0,-4.718896002E-2
6.446610417E-1,-6.816824341E-1,-9.929002533E0,7.901169434E0,6.496880417E-1,1.028521538E0,2.083737373E0,2.546343207E-1
6.547160417E-1,-1.833986206E0,-7.541168060E0,4.714745636E0,6.597440417E-1,1.380737901E0,2.104368210E0,5.964459777E-1
6.647720417E-1,-2.361040192E0,-6.080056458E0,2.145338745E0,6.698000417E-1,1.789266944E0,2.195421934E0,8.938372731E-1
6.748280417E-1,-2.477348328E0,-5.792953491E0,1.408421173E0,6.798560417E-1,2.103143692E0,2.229304552E0,1.100616813E0
6.848840417E-1,-2.804717560E0,-5.520969086E0,1.844015350E0,6.899110417E-1,2.341132164E0,2.202545643E0,1.306087494E0
6.949390417E-1,-3.362607422E0,-6.433172150E0,2.879861298E0,6.999670417E-1,2.449098825E0,2.466126204E0,1.580320477E0
7.049950417E-1,-3.607049103E0,-8.181237030E0,3.782783661E0,7.100230417E-1,2.362566471E0,2.807500362E0,1.843927503E0
7.150510417E-1,-3.619622955E0,-9.389374695E0,3.406166840E0,7.200790417E-1,1.980062842E0,2.806143045E0,1.964931965E0
7.251060417E-1,-3.734583893E0,-1.028346542E1,2.461181946E0,7.301340417E-1,1.382716179E0,2.215143442E0,1.947369099E0
7.351620417E-1,-3.530707855E0,-1.107187592E1,1.402283936E0,7.401900417E-1,6.913713217E-1,1.128138304E0,1.609973431E0
7.452180417E-1,-3.528612213E0,-1.246038849E1,1.999841309E-1,7.502460417E-1,3.482231796E-1,-4.603004158E-1,1.099193931E0
7.552740417E-1,-2.368973694E0,-1.327469513E1,-2.049088898E0,7.603010417E-1,7.448346615E-1,-2.237939119E0,9.715871811E-1
7.653290417E-1,-4.531077576E-1,-1.246128662E1,-3.637136536E0,7.703570417E-1,1.571610451E0,-3.198032856E0,1.020318151E0
7.753850417E-1,2.670446777E-1,-1.012973511E1,-1.551822968E0,7.804130417E-1,2.270300388E0,-2.693362713E0,8.393670321E-1
7.854410417E-1,4.923262024E-1,-7.925868073E0,1.620979156E0,7.904690417E-1,2.319105148E0,-4.646536708E-1,5.975018740E-1
7.954970417E-1,-3.799099731E-1,-6.887627106E0,4.194876709E0,8.005240417E-1,1.578340292E0,1.557978034E0,3.643615544E-1
8.055520417E-1,-8.086184692E-1,-6.233786774E0,3.247945862E0,8.105801250E-1,9.642713666E-1,2.391494751E0,1.394467950E-1
8.156081250E-1,-1.003513184E0,-5.449717255E0,3.213816833E-1,8.206361250E-1,9.024604559E-1,2.298924923E0,2.855278179E-2
8.256641250E-1,-1.806293793E0,-6.352639618E0,-1.299447784E0,8.306921250E-1,1.083140850E0,1.752746582E0,9.563229233E-2
8.357191250E-1,-2.144889679E0,-7.468718719E0,-1.371448059E0,8.407471250E-1,1.200224876E0,1.139700174E0,1.484939158E-1
8.457751250E-1,-2.096240845E0,-7.568411407E0,-5.514532471E-1,8.508031250E-1,1.179825664E0,6.709483862E-1,1.560920179E-1
8.558311250E-1,-1.835483093E0,-7.561675415E0,3.573069763E-1,8.608591250E-1,1.227542639E0,5.672398806E-1,1.616907716E-1
8.658871250E-1,-1.581611023E0,-8.143216095E0,1.539997559E0,8.709151250E-1,1.438802004E0,7.681820393E-1,2.113851905E-1
8.759421250E-1,-1.086889801E0,-8.833430786E0,2.067949677E0,8.809701250E-1,1.704998016E0,6.660178304E-1,3.451885283E-1
8.859981250E-1,-3.152444458E-1,-9.456135864E0,-2.055226135E-1,8.910261250E-1,1.873604774E0,3.221235871E-1,4.592030942E-1
8.960541250E-1,2.933898926E-1,-9.766440582E0,-1.614392853E0,9.010821250E-1,1.939353466E0,1.975326687E-1,5.405387282E-1
9.061101250E-1,9.758207703E-1,-9.731263733E0,-1.426683197E0,9.111371250E-1,1.820398331E0,2.312112600E-1,6.145158410E-1
9.161651250E-1,1.598226471E0,-9.775870972E0,-1.919009399E0,9.211931250E-1,1.577923894E0,2.947705388E-1,6.873157620E-1
9.262211250E-1,1.832639008E0,-1.005234604E1,-2.687660980E0,9.312491250E-1,1.287552595E0,2.738473415E-1,7.287183404E-1
9.362771250E-1,1.619332581E0,-1.028047165E1,-3.482657776E0,9.413051250E-1,1.057694912E0,5.124009773E-2,7.573888898E-1
9.463321250E-1,1.138083344E0,-1.035112473E1,-4.259093170E0,9.513601250E-1,9.287457466E-1,-1.859335005E-1,7.594999075E-1
9.563881250E-1,3.562591553E-1,-1.010518616E1,-3.778442688E0,9.614161250E-1,8.836141825E-1,-2.307209522E-1,7.384793162E-1
9.664441250E-1,-4.071533203E-1,-9.783654785E0,-2.500101013E0,9.714721250E-1,8.640657067E-1,-1.456914544E-1,7.259271741E-1
9.765001250E-1,-1.073118439E0,-9.472901001E0,-1.440753937E0,9.815281250E-1,8.186672926E-1,-4.092669487E-2,7.342392206E-1
9.865551250E-1,-1.495090942E0,-9.469158783E0,-8.912466431E-1,9.915831250E-1,6.671862006E-1,-3.283365443E-2,7.656151056E-1
9.966111250E-1,-1.707050171E0,-9.878856812E0,-6.806346130E-1,1.001639125E0,4.436356723E-1,-9.476333857E-2,7.888993621E-1
1.006667125E0,-1.709445190E0,-1.014844620E1,-1.716929626E-1,1.011695125E0,3.130742610E-1,-2.270598561E-1,7.537668347E-1
1.016723125E0,-1.729054413E0,-1.017973114E1,-2.559677124E-2,1.021750125E0,3.184501231E-1,-3.373070061E-1,7.005938888E-1
1.026778125E0,-1.584155731E0,-1.046413971E1,2.266287231E-1,1.031806125E0,3.083757162E-1,-2.506558895E-1,5.982106924E-1
1.036834125E0,-1.476230164E0,-1.056068893E1,9.840536499E-1,1.041862125E0,2.235508263E-1,-8.673112094E-2,4.759678543E-1
1.046890125E0,-1.160237274E0,-1.078088104E1,1.187181244E0,1.051918125E0,9.621223062E-2,-9.089129418E-2,3.395692110E-1
1.056945125E0,-5.182223511E-1,-1.144040955E1,1.064436493E0,1.061973125E0,9.801442735E-3,-2.443231940E-1,1.851817518E-1
1.067001125E0,2.671943665E-1,-1.224663300E1,1.314117279E0,1.072029125E0,9.270089120E-2,-3.508267403E-1,4.782453552E-2
1.077057125E0,1.067130890E0,-1.311018723E1,1.750010834E0,1.082085125E0,4.040808678E-1,-1.897696853E-1,-7.225180417E-2
1.087113125E0,1.715881805E0,-1.359652588E1,2.057770844E0,1.092141125E0,7.409980893E-1,2.268393934E-1,-1.755264252E-1
1.097168125E0,1.868863678E0,-1.325493622E1,1.600621490E0,1.102196125E0,9.029909968E-1,8.153820038E-1,-3.262467086E-1
1.107224125E0,1.222956848E0,-1.225651245E1,3.715274048E-1,1.112252125E0,8.439745903E-1,1.413110852E0,-5.032504797E-1
1.117280125E0,4.195774841E-1,-1.155043076E1,-1.492845612E0,1.122308125E0,5.556219220E-1,1.783448458E0,-5.981583595E-1
1.127336125E0,-2.556683350E-1,-1.220352264E1,-3.112028503E0,1.132363125E0,-7.802473009E-2,1.797247767E0,-5.850550532E-1
1.137391125E0,-3.088078308E-1,-1.345821350E1,-2.950514374E0,1.142419125E0,-7.211169004E-1,1.280457973E0,-5.499092937E-1
1.147447125E0,-1.215472412E-1,-1.480735794E1,-1.560804291E0,1.152475125E0,-1.005337238E0,5.286012888E-1,-6.366635561E-1
1.157503125E0,1.317260742E-1,-1.547317337E1,-4.273612976E-1,1.162531125E0,-1.359909892E0,2.253890969E-2,-7.131109238E-1
1.167558125E0,7.065307617E-1,-1.484807327E1,8.505313110E-1,1.172586125E0,-1.783478260E0,1.713937614E-3,-9.252380133E-1
1.177614125E0,8.092172241E-1,-1.239542358E1,2.950813751E0,1.182642125E0,-2.019599676E0,2.735033631E-1,-1.172635555E0
1.187670125E0,1.317260742E-2,-1.069600754E1,3.626508636E0,1.192698125E0,-2.135850906E0,7.156245112E-1,-1.354321480E0
1.197726125E0,-1.819167023E0,-9.156608734E0,2.308050385E0,1.202754125E0,-2.210481167E0,1.201426625E0,-1.569980741E0
1.207781125E0,-3.746858368E0,-7.757019196E0,6.180647278E-1,1.212809125E0,-2.221479177E0,1.564498901E0,-1.795777440E0
1.217837125E0,-5.696703644E0,-7.690258026E0,-8.580157471E-1,1.222865125E0,-2.165036201E0,1.460010529E0,-1.908266664E0
1.227893125E0,-6.865772552E0,-8.802594910E0,-2.136058044E0,1.232921125E0,-2.142333508E0,1.070265770E0,-1.917961955E0
1.237949125E0,-7.934699707E0,-1.034244278E1,-1.819616089E0,1.242976125E0,-2.194450855E0,7.904021144E-1,-1.845649600E0
1.248004125E0,-9.023385773E0,-1.250110382E1,-3.501219177E-1,1.253032125E0,-2.175179482E0,7.558727860E-1,-1.620669007E0
1.258060125E0,-1.007988876E1,-1.536629562E1,9.439370728E-1,1.263088125E0,-2.003994226E0,7.749080062E-1,-1.250459552E0
1.268116125E0,-1.134146530E1,-1.777059586E1,5.993536377E-1,1.273144125E0,-1.806482196E0,6.064817309E-1,-6.918856502E-1
1.278171125E0,-1.210996719E1,-1.884655838E1,-6.071374512E-1,1.283199125E0,-1.650490761E0,5.919867158E-1,-2.868452072E-1
1.288227125E0,-1.142214752E1,-1.648491943E1,-7.842192078E-1,1.293255125E0,-1.515365839E0,8.171299100E-1,-2.345651388E-1
1.298283125E0,-9.578581238E0,-1.261501694E1,-1.581760712E0,1.303311125E0,-1.222615004E0,1.562167525E0,-5.142050385E-1
1.308339125E0,-7.501051483E0,-9.975855103E0,-6.658154297E-1,1.313367125E0,-6.243664026E-1,2.903114796E0,-1.138207197E0
1.318394125E0,-4.926405487E0,-8.479267273E0,4.906796265E-1,1.323422125E0,-3.144791424E-1,3.109820366E0,-1.309995294E0
1.328450125E0,-1.648372192E0,-9.797725525E0,-2.347867584E0,1.333478125E0,-2.913344204E-1,3.097605705E0,-1.227386475E0
1.338506125E0,3.053649902E-2,-9.123377838E0,-1.853445740E0,1.343534125E0,-3.946776092E-1,2.729169369E0,-1.245372653E0
1.348562125E0,8.702902222E-1,-7.683372345E0,-1.780846710E0,1.353589125E0,-5.285214782E-1,1.833898544E0,-1.570953131E0
1.358617125E0,1.582060089E0,-6.769971771E0,-1.814676361E0,1.363645125E0,-7.285330892E-1,9.592632055E-1,-2.164178371E0
1.368673125E0,2.695744171E0,-6.629863129E0,-4.153862000E-1,1.373701125E0,-1.195165038E0,-6.282207370E-2,-2.429083347E0
1.378729125E0,2.816093903E0,-8.392747192E0,-1.772613831E0,1.383757125E0,-1.681605220E0,-1.226912141E0,-2.320070028E0
1.388784125E0,2.665207672E0,-8.803043976E0,-2.471660156E0,1.393812125E0,-1.984536767E0,-2.146790743E0,-1.891640186E0
1.398840125E0,2.416125641E0,-7.789202271E0,-1.752405853E0,1.403868125E0,-2.141764641E0,-2.503113270E0,-1.480245233E0
1.408896125E0,9.116043091E-1,-5.467380524E0,-3.622467041E-1,1.413924125E0,-2.115640402E0,-2.538611889E0,-1.299073219E0
1.418952125E0,-7.985893250E-1,-4.092040558E0,3.772155762E-2,1.423979125E0,-2.061802864E0,-2.636627674E0,-1.182078958E0
1.429007125E0,-1.466201019E0,-3.889811096E0,-8.240364075E-1,1.434035125E0,-2.035545349E0,-2.901995897E0,-1.085389853E0
1.439063125E0,-1.503772888E0,-3.929029541E0,-1.283730469E0,1.444091125E0,-1.896794438E0,-2.937064648E0,-9.568084478E-1
1.449119125E0,-1.287322998E0,-4.170178070E0,-5.971083069E-1,1.454147125E0,-1.638348460E0,-2.842754841E0,-8.657683134E-1
1.459175125E0,-1.058598633E0,-4.327051849E0,-4.468208313E-1,1.464202125E0,-1.348928094E0,-2.724774599E0,-8.176873326E-1
1.469230125E0,-9.310638428E-1,-4.311484222E0,-8.132588196E-1,1.474258125E0,-1.093368649E0,-2.677397728E0,-7.655992508E-1
1.479286125E0,-1.025517426E0,-4.421206055E0,-1.126707001E0,1.484314125E0,-8.363005519E-1,-2.588428974E0,-6.862453222E-1
1.489342125E0,-1.489253082E0,-4.179758148E0,-7.978408813E-1,1.494370125E0,-5.168468356E-1,-2.371986628E0,-5.687295794E-1
1.499397125E0,-1.983674927E0,-3.577410736E0,-2.983296204E-1,1.504425125E0,-1.665146947E-1,-2.194945574E0,-4.412341714E-1
1.509453125E0,-2.276316376E0,-3.052153015E0,-7.026388550E-1,1.514481125E0,1.698705256E-1,-2.110577583E0,-2.714879513E-1
1.519509125E0,-2.568957825E0,-3.103346558E0,-1.474733276E0,1.524537125E0,4.658718109E-1,-2.063145638E0,-7.539780438E-2
1.529565125E0,-2.705024872E0,-3.269201660E0,-2.090103607E0,1.534592125E0,7.043726444E-1,-2.137037992E0,1.130098626E-1
1.539620125E0,-2.368374939E0,-3.568728790E0,-3.136727142E0,1.544648125E0,9.710690379E-1,-2.209152699E0,3.442574441E-1
1.549676125E0,-1.783092041E0,-4.162843323E0,-3.640579376E0,1.554704125E0,1.201472521E0,-2.288116693E0,5.456075072E-1
1.559732125E0,-9.223818970E-1,-4.213288422E0,-4.124223633E0,1.564760125E0,1.355505943E0,-2.223419189E0,7.543905377E-1
1.569788125E0,-1.167572021E-1,-4.617597656E0,-4.136198730E0,1.574815125E0,1.422661543E0,-2.069520473E0,8.950432539E-1
1.579843125E0,6.010002136E-1,-4.696932678E0,-4.437522125E0,1.584871125E0,1.492438555E0,-1.721068621E0,1.020192862E0
1.589899125E0,6.483018494E-1,-5.411546631E0,-4.571792908E0,1.594927125E0,1.479214191E0,-1.299668789E0,9.926110506E-1
1.599955125E0,8.502319336E-2,-6.110293579E0,-5.634732513E0,1.604983125E0,1.119626403E0,-1.023211956E0,9.435787797E-1
1.610010125E0,-1.138831787E0,-8.027057648E0,-9.430239716E0,1.615038125E0,4.551816881E-1,-1.297485590E0,1.021047831E0
1.620066125E0,-2.306852875E0,-1.217448303E1,-1.497890121E1,1.625094125E0,1.044127345E-1,-2.119403362E0,1.154450893E0
1.630122125E0,-2.336042175E0,-1.793031372E1,-1.530941391E1,1.635150125E0,-3.594322205E-1,-2.298708677E0,1.006298900E0
1.640178125E0,-1.486109619E0,-2.419673264E1,-1.031834290E1,1.645205125E0,-1.241900682E0,-1.747529387E0,4.563473463E-1
1.650233125E0,-7.602690125E-1,-2.867242538E1,-8.496032410E0,1.655261125E0,-1.821479082E0,-1.316274762E0,-5.100284815E-1
1.660289125E0,-7.508386230E-1,-2.480072662E1,-1.017015106E1,1.665317125E0,-2.207970858E0,-1.357505560E0,-1.116139531E0
1.670345125E0,-1.015937347E0,-1.751402939E1,-1.194261520E1,1.675373125E0,-2.272673368E0,-1.631709218E0,-1.342289090E0
1.680401125E0,-1.678010559E-1,-1.188977509E1,-1.024334885E1,1.685428125E0,-2.012966156E0,-1.595201254E0,-1.357780099E0
1.690456125E0,7.789801025E-1,-7.624544678E0,-6.665339355E0,1.695484125E0,-1.637175679E0,-1.478307962E0,-1.161342144E0
1.700512125E0,8.334667969E-1,-3.685935059E0,-5.745651855E0,1.705540125E0,-9.363635182E-1,-1.106309295E0,-7.288323045E-1
1.710568125E0,-9.976753235E-1,-1.754501495E0,-4.452191620E0,1.715596125E0,1.622253656E-2,3.471536562E-2,-1.895775646E-1
1.720623125E0,-3.669768677E0,-4.661905518E0,-1.729204102E0,1.725651125E0,5.496832728E-1,4.686047435E-1,2.303725630E-1
1.730679125E0,-7.089557190E0,-1.163964523E1,-5.557942200E0,1.735707125E0,8.390296698E-1,1.233742714E0,6.319195628E-1
1.740735125E0,-1.045860123E1,-2.035766602E1,1.604962463E0,1.745763125E0,4.540990293E-1,3.042638063E0,8.079742193E-1
1.750791125E0,-1.202075272E1,-2.554378143E1,1.225486588E1,1.755818125E0,5.499724746E-1,3.385487080E0,-8.714312315E-2
1.760846125E0,-1.103011276E1,-1.691677139E1,1.044887146E1,1.765874125E0,7.955428362E-1,1.880512357E0,-8.503315449E-1
1.770902125E0,-8.430618439E0,-6.335575104E0,2.929408264E0,1.775930125E0,8.574669361E-1,1.605762124E0,-6.242677569E-1
1.780958125E0,-5.165308685E0,-3.498375092E0,3.043171692E0,1.785986125E0,1.101736546E0,1.788432837E0,-1.080741659E-1
1.791013125E0,-3.626808014E0,-2.340832214E0,3.183130646E0,1.796041125E0,1.131008983E0,1.356805801E0,5.394164324E-1
1.801069125E0,-3.686384125E0,-3.729943542E0,-5.472619629E-1,1.806097125E0,1.082605720E0,1.031996846E0,1.059114695E0
1.811126375E0,-3.703897705E0,-4.992567902E0,-7.529342651E-2,1.816154375E0,1.099844456E0,1.170919657E0,1.385295153E0
1.821182375E0,-3.742367706E0,-6.392456818E0,3.890260162E0,1.826210375E0,1.296692252E0,1.687414169E0,1.693286538E0
1.831237375E0,-4.141288147E0,-8.548273773E0,5.941295013E0,1.836265375E0,1.586712480E0,2.116508007E0,1.980137706E0
1.841293375E0,-4.463268585E0,-1.037672150E1,5.159171448E0,1.846321375E0,1.988743067E0,2.426195383E0,2.174922705E0
1.851349375E0,-4.796775055E0,-1.156045990E1,3.856430511E0,1.856377375E0,2.278498411E0,2.519107342E0,2.160768032E0
1.861405375E0,-5.256768494E0,-1.174966644E1,2.781366119E0,1.866432375E0,2.234714270E0,2.098507643E0,2.045059204E0
1.871460375E0,-5.071902924E0,-1.189696014E1,1.315165100E0,1.876488375E0,2.089826822E0,1.422975421E0,1.871626973E0
1.881516375E0,-4.367168427E0,-1.181552948E1,4.360432434E-1,1.886544375E0,1.963544846E0,3.464139998E-1,1.737574935E0
1.891572375E0,-3.168161774E0,-1.162437698E1,-9.845027161E-1,1.896600375E0,1.978788733E0,-1.095286608E0,1.449617863E0
1.901627375E0,-1.938019867E0,-1.137020554E1,-2.336042175E0,1.906655375E0,2.212388754E0,-2.242394686E0,9.385825396E-1
1.911683375E0,2.026785278E-1,-1.049931656E1,-2.344125366E0,1.916711375E0,2.438790321E0,-1.881114006E0,4.596890509E-1
1.921739375E0,2.309247894E0,-8.793912964E0,1.197509766E-3,1.926767375E0,2.226662874E0,-1.619011313E-1,2.286632806E-1
1.931795375E0,2.755769348E0,-7.727530518E0,2.008223877E0,1.936822375E0,1.679163337E0,1.127172232E0,2.653820217E-1
1.941850375E0,2.238744507E0,-7.822882233E0,7.194039917E-1,1.946878375E0,1.234129071E0,1.373666644E0,3.660860062E-1
1.951906375E0,1.616638184E0,-7.737559662E0,-2.072889404E0,1.956934375E0,1.064508915E0,7.853579521E-1,4.126537740E-1
1.961962375E0,3.962260437E-1,-7.596103821E0,-3.924538879E0,1.966990375E0,1.060038209E0,3.494568467E-1,3.323035240E-1
1.972018375E0,-1.150657196E0,-6.943910065E0,-1.979333954E0,1.977045375E0,1.093037009E0,3.398408294E-1,2.233562768E-1
1.982073375E0,-1.748963013E0,-6.757397919E0,1.851649475E-1,1.987101375E0,1.111429572E0,4.904622734E-1,1.310180873E-1
1.992129375E0,-2.067949677E0,-7.025640106E0,1.180594940E0,1.997157375E0,1.106400013E0,6.125237346E-1,6.447736919E-2
2.002185375E0,-2.346520386E0,-7.441026306E0,1.381028137E0,2.007213375E0,1.109974027E0,6.376757026E-1,5.702371150E-2
2.012240375E0,-2.343676300E0,-8.057743835E0,1.038989410E0,2.017268375E0,1.193310738E0,7.093469501E-1,5.800684914E-2
2.022296375E0,-2.198927307E0,-8.373736725E0,1.523082733E0,2.027324375E0,1.381093144E0,9.452263117E-1,6.894898415E-2
2.032352375E0,-2.068847809E0,-8.572074280E0,1.991309052E0,2.037380375E0,1.625599504E0,9.759209156E-1,1.690313220E-1
2.042408375E0,-1.722617798E0,-8.627459106E0,9.187893677E-1,2.047435375E0,1.842084408E0,7.694849372E-1,3.020303845E-1
2.052463375E0,-1.529968414E0,-8.680897980E0,-3.700305176E-1,2.057491375E0,1.913328052E0,1.485645026E-1,4.305957258E-1
2.062519375E0,-1.109642487E0,-8.591833191E0,-2.267784119E0,2.067547375E0,1.910043597E0,-3.251465857E-1,4.973260164E-1
2.072575375E0,-5.342390442E-1,-8.403225403E0,-2.058818665E0,2.077603375E0,1.860501409E0,-3.975406289E-1,6.314958930E-1
2.082630375E0,-1.761836243E-1,-8.998986511E0,-1.896256714E0,2.087658375E0,1.707666039E0,-1.904963702E-1,7.620118260E-1
2.092686375E0,-3.016227722E-1,-9.384285278E0,-2.600691833E0,2.097714375E0,1.443429232E0,4.051588476E-2,8.438261747E-1
2.102742375E0,-5.396278381E-1,-9.507030029E0,-2.880759430E0,2.107770375E0,1.187238932E0,1.486178488E-1,8.806672692E-1
2.112798375E0,-7.649093628E-1,-9.417067108E0,-2.336491241E0,2.117825375E0,1.067551255E0,1.153908819E-1,8.592388034E-1
2.122853375E0,-9.955796814E-1,-8.990903320E0,-1.508712616E0,2.127881375E0,1.083451033E0,1.518998295E-2,8.065859675E-1
2.132909375E0,-1.185684357E0,-8.584348755E0,-6.827302551E-1,2.137937375E0,1.145017743E0,2.648930298E-3,7.746201754E-1
2.142965375E0,-1.374890900E0,-8.755143585E0,-7.035369873E-3,2.147993375E0,1.080823541E0,-3.772858530E-2,7.837407589E-1
2.153021375E0,-1.570534058E0,-9.396559753E0,-2.998265076E-1,2.158048375E0,8.580483794E-1,-7.040998340E-2,7.839447856E-1
2.163076375E0,-1.603315887E0,-9.840237122E0,-6.126759338E-1,2.168104375E0,5.942417383E-1,-4.163772613E-2,7.501921654E-1
2.173132375E0,-1.573078766E0,-1.008213409E1,-5.207670593E-1,2.178160375E0,4.202462733E-1,-3.867826611E-2,6.811529398E-1
2.183188375E0,-1.752256165E0,-1.067744614E1,-3.002755737E-1,2.188216375E0,3.828110099E-1,-7.381708175E-2,5.432187319E-1
2.193243375E0,-2.122586060E0,-1.140493332E1,2.161505127E-1,2.198271375E0,4.021457732E-1,-6.734604016E-3,3.743484914E-1
2.203299375E0,-2.268083496E0,-1.193318481E1,1.022972717E0,2.208327375E0,3.640673757E-1,1.744833887E-1,2.195458561E-1
2.213355375E0,-1.909878387E0,-1.241009308E1,1.726060638E0,2.218383375E0,2.476378828E-1,2.500234544E-1,1.205396652E-1
2.223411375E0,-1.032253418E0,-1.321242462E1,1.734443207E0,2.228438375E0,1.715742797E-1,1.189301535E-1,7.563024759E-2
2.233466375E0,6.586303711E-2,-1.399844009E1,1.323547668E0,2.238494375E0,2.387092113E-1,1.652514003E-2,5.218921974E-2
2.243522375E0,1.249451752E0,-1.425904816E1,1.369202728E0,2.248550375E0,4.765177965E-1,1.851863265E-1,7.088055834E-3
2.253578375E0,2.179916840E0,-1.383288437E1,1.542841644E0,2.258606375E0,7.169226408E-1,7.266176939E-1,-1.489653289E-1
2.263633375E0,2.183060303E0,-1.278296768E1,1.377136230E0,2.268661375E0,7.364057899E-1,1.333957076E0,-3.537783921E-1
2.273689375E0,1.422192535E0,-1.243045074E1,5.658233643E-2,2.278717375E0,5.512868762E-1,1.517932057E0,-4.165524840E-1
2.283745375E0,4.978646851E-1,-1.307725571E1,-2.434537354E0,2.288773375E0,4.413416982E-2,1.267111778E0,-3.817465603E-1
2.293801375E0,1.200503540E-1,-1.355176895E1,-3.303031311E0,2.298828375E0,-7.086407542E-1,8.887335658E-1,-3.202694654E-1
2.303856375E0,4.593946838E-1,-1.429482376E1,-1.388063507E0,2.308884375E0,-1.164739370E0,3.395495415E-1,-3.417864740E-1
2.313912375E0,-2.453398132E-1,-1.573423050E1,-1.460961914E0,2.318940375E0,-1.451479673E0,1.559343636E-1,-4.656189978E-1
2.323968375E0,-1.145118713E-1,-1.527738052E1,-5.478607178E-1,2.328996375E0,-1.940146208E0,3.076770008E-1,-6.728243232E-1
2.334024375E0,7.768844604E-1,-1.258612701E1,2.091001740E0,2.339051375E0,-2.306510687E0,4.364538789E-1,-9.533714652E-1
2.344079375E0,7.307803345E-1,-1.012928604E1,3.344345398E0,2.349107375E0,-2.374436855E0,6.162902117E-1,-1.275391579E0
2.354135375E0,-3.327580261E-1,-8.381520538E0,2.652035065E0,2.359163375E0,-2.301175594E0,9.313033223E-1,-1.579908013E0
2.364191375E0,-2.070793762E0,-7.025640106E0,1.268761597E0,2.369219375E0,-2.258833647E0,1.127967596E0,-1.904577374E0
2.374246375E0,-3.645219727E0,-6.597530365E0,-3.025209045E-1,2.379274375E0,-2.226059198E0,1.008643746E0,-2.132125616E0
2.384302375E0,-5.422024841E0,-7.372169495E0,-1.257684631E0,2.389330375E0,-2.205996513E0,8.282212019E-1,-2.172394276E0
2.394358375E0,-7.152127075E0,-9.770781555E0,-1.646725616E0,2.399386375E0,-2.142064095E0,5.881723762E-1,-2.198408842E0
2.404414375E0,-8.220156097E0,-1.219484070E1,-1.459465027E0,2.409441375E0,-2.025405407E0,4.016965330E-1,-2.192864418E0
2.414469375E0,-8.659791870E0,-1.430739761E1,1.568737793E-1,2.419497375E0,-1.929145813E0,5.747125745E-1,-2.029117107E0
2.424525375E0,-9.124275970E0,-1.635154678E1,2.285297699E0,2.429553375E0,-1.801297307E0,7.558874488E-1,-1.594073534E0
2.434581375E0,-1.003378464E1,-1.793285843E1,1.407223663E0,2.439609375E0,-1.734050751E0,6.548584700E-1,-9.441953301E-1
2.444636375E0,-1.053973251E1,-1.805096283E1,-1.052760773E0,2.449664375E0,-1.781267285E0,5.246884823E-1,-5.092880726E-1
2.454692375E0,-9.700577545E0,-1.531495239E1,-2.722388763E0,2.459720375E0,-1.787013173E0,4.954118729E-1,-3.955921531E-1
2.464748375E0,-8.374185791E0,-1.218690720E1,-3.449426880E0,2.469776375E0,-1.583364725E0,7.651911974E-1,-5.099922419E-1
2.474804375E0,-6.746320953E0,-1.017958145E1,-1.732497253E0,2.479832375E0,-1.234867334E0,1.474118233E0,-9.052297473E-1
2.484859375E0,-4.846771088E0,-9.125473480E0,4.364923096E-1,2.489887375E0,-9.491084814E-1,2.146668434E0,-1.244335294E0
2.494915375E0,-2.143692169E0,-8.860973511E0,-2.080673218E-2,2.499943375E0,-7.313433886E-1,2.234912872E0,-1.376345396E0
2.504971375E0,-1.115180969E-1,-8.826395416E0,-8.623567200E-1,2.509999375E0,-5.718205571E-1,1.661786437E0,-1.508890867E0
2.515027375E0,1.024768982E0,-7.749085693E0,-1.298549652E0,2.520054375E0,-7.063888311E-1,9.482479095E-1,-2.106295347E0
2.525082375E0,2.522853699E0,-7.500452728E0,-1.004411316E0,2.530110375E0,-1.410182357E0,2.918346226E-1,-2.139057875E0
2.535138375E0,1.487606506E0,-9.770931244E0,-1.695374451E0,2.540166375E0,-1.920626998E0,-6.343021393E-1,-1.863157868E0
2.545194375E0,9.846524048E-1,-8.634644165E0,-2.610870667E0,2.550222375E0,-2.235708237E0,-1.715762019E0,-1.520375848E0
2.555249375E0,-1.689985657E-1,-7.362739105E0,-2.125280457E0,2.560277375E0,-2.302903891E0,-2.361152411E0,-1.364674687E0
2.565305375E0,-1.327589264E0,-5.960305481E0,-6.370751953E-1,2.570333375E0,-2.220442533E0,-2.586510897E0,-1.328252077E0
2.575361375E0,-1.852547607E0,-5.278323669E0,-3.532653809E-2,2.580389375E0,-2.076009989E0,-2.702017069E0,-1.258127689E0
2.585417375E0,-2.226320343E0,-5.289849701E0,1.130149841E-1,2.590444375E0,-1.877555013E0,-2.678910732E0,-1.222727656E0
2.595472375E0,-2.481838989E0,-4.802463226E0,3.817062378E-2,2.600500375E0,-1.729697585E0,-2.761350393E0,-1.181241751E0
2.605528375E0,-2.570155334E0,-4.726121979E0,1.766326904E-2,2.610556375E0,-1.490705729E0,-2.727239132E0,-1.056616426E0
2.615584375E0,-2.556533661E0,-4.576582947E0,3.522175598E-1,2.620612375E0,-1.254627228E0,-2.833923340E0,-9.028606415E-1
2.625639375E0,-2.263592834E0,-4.063150635E0,8.292755127E-2,2.630667375E0,-1.075192213E0,-3.018861771E0,-7.784028649E-1
2.635695375E0,-1.999092865E0,-3.680396576E0,6.286926270E-2,2.640723375E0,-7.874659300E-1,-3.001404524E0,-6.524606943E-1
2.645751375E0,-1.580563202E0,-3.485501862E0,-1.856140137E-2,2.650779375E0,-5.302343965E-1,-2.973743916E0,-4.643834829E-1
2.655807375E0,-1.305734711E0,-3.141966248E0,-5.224136353E-1,2.660835375E0,-2.595550418E-1,-2.870380878E0,-2.953438759E-1
2.665862375E0,-1.451830902E0,-2.775528259E0,-9.759704590E-2,2.670890375E0,9.632077068E-2,-2.589576960E0,-1.123748645E-1
2.675918375E0,-1.709145813E0,-2.371069336E0,2.125579834E-2,2.680946375E0,4.591433406E-1,-2.451817751E0,1.078130305E-1
2.685974375E0,-1.564247131E0,-1.819316711E0,-1.155447235E0,2.691002375E0,8.020149469E-1,-2.424760818E0,3.880369663E-1
2.696030375E0,-1.316811676E0,-1.639690247E0,-1.686842194E0,2.701057375E0,1.167063236E0,-2.337387085E0,6.692702770E-1
2.706085375E0,-1.068328400E0,-1.957030334E0,-1.922751617E0,2.711113375E0,1.458961844E0,-2.242750168E0,9.101012945E-1
2.716141375E0,-1.088835754E0,-2.509980469E0,-2.487078094E0,2.721169375E0,1.632252097E0,-2.223059177E0,1.067363501E0
2.726197375E0,-1.045426025E0,-3.195554810E0,-3.222049713E0,2.731225375E0,1.785884261E0,-2.206860781E0,1.234926581E0
2.736252375E0,-1.172960815E0,-4.597539368E0,-3.574566650E0,2.741280375E0,1.922263622E0,-1.958807111E0,1.325575233E0
2.746308375E0,-2.007625122E0,-5.511838074E0,-3.249442749E0,2.751336375E0,1.704181552E0,-1.677087545E0,1.312207818E0
2.756364375E0,-3.220403137E0,-7.727680206E0,-5.577850800E0,2.761392375E0,9.230938554E-1,-1.504028201E0,1.303074121E0
2.766420375E0,-4.169130249E0,-1.206730591E1,-1.050680099E1,2.771447375E0,-1.672340557E-2,-1.815202594E0,1.097072482E0
2.776475375E0,-3.584446106E0,-1.791504547E1,-1.363933685E1,2.781503375E0,-8.222700953E-1,-1.690492749E0,3.425280154E-1
2.786531375E0,-1.935624847E0,-2.775303726E1,-8.874146118E0,2.791559375E0,-2.043302298E0,-1.224861979E0,-1.196369052E0
2.796587375E0,8.843609619E-1,-3.527968552E1,-9.530980225E0,2.801615375E0,-2.682705641E0,-1.596691251E0,-2.191946030E0
2.806642375E0,-1.535806274E-1,-2.972967682E1,-1.457638824E1,2.811668750E0,-2.608542204E0,-2.115038633E0,-2.515497923E0
2.816696750E0,-9.854008484E-1,-1.753303986E1,-1.381267639E1,2.821724750E0,-2.087148666E0,-1.689205527E0,-2.504717112E0
2.826752750E0,5.914201355E-1,-1.019993912E1,-8.271499329E0,2.831780750E0,-1.517317772E0,-1.136797547E0,-2.048424721E0
2.836808750E0,1.267713776E0,-5.176535339E0,-5.495971069E0,2.841835750E0,-1.160403013E0,-7.040548921E-1,-1.331008673E0
2.846863750E0,7.821235657E-1,-1.860630798E-1,-3.525019684E0,2.851891750E0,-9.522975087E-1,-3.548018038E-1,-7.614223957E-1
2.856919750E0,1.959425354E-1,3.100801849E0,-4.071533203E0,2.861947750E0,-6.151355505E-1,-3.226024806E-1,-4.366863072E-1
2.866975750E0,9.244775391E-1,3.031196594E0,-7.388934631E0,2.872003750E0,-3.441469371E-1,-5.840154290E-1,-1.171037629E-1
2.877031750E0,1.371747437E0,1.170116730E0,-9.775421906E0,2.882058750E0,-9.508676082E-2,-9.005246758E-1,2.061335593E-1
2.887086750E0,5.254074097E-2,-1.504671021E0,-1.116198853E1,2.892114750E0,6.067049503E-1,-3.232022822E-1,5.082031488E-1
2.897142750E0,-1.142574005E0,-5.589227142E0,-4.990921326E0,2.902170750E0,9.161542654E-1,2.254900783E-1,1.058004141E0
2.907198750E0,-4.471651154E0,-1.370145767E1,-2.326462097E0,2.912226750E0,9.724657536E-1,4.608647823E-1,1.687404394E0
2.917253750E0,-1.076531342E1,-2.267035675E1,3.515439606E0,2.922281750E0,5.480470061E-1,1.285890341E0,1.838136673E0
2.927309750E0,-1.713681381E1,-2.729049911E1,9.085805969E0,2.932337750E0,3.865042031E-1,1.132913828E0,1.160419464E0
2.937365750E0,-1.979408798E1,-2.573987366E1,1.395847321E0,2.942393750E0,6.049970984E-1,4.966680110E-1,-1.436694264E-1
2.947421750E0,-1.155282578E1,-1.503219040E1,-1.532363434E0,2.952448750E0,4.015933573E-1,1.035599709E0,-5.907773972E-1
2.957476750E0,-7.173083496E-1,-8.815019073E0,4.506528625E0,2.962504750E0,6.020595431E-1,1.365753651E0,-5.632771850E-1
2.967532750E0,-4.730163574E-2,-7.189998322E0,9.995015259E0,2.972560750E0,9.080806971E-1,1.569313407E0,-2.624071240E-1
2.977588750E0,-2.446512451E0,-6.407874756E0,8.329129486E0,2.982616750E0,1.132640719E0,1.534164190E0,2.127974480E-1
2.987643750E0,-3.891008606E0,-5.951473846E0,1.994751892E0,2.992671750E0,1.223085999E0,1.202436209E0,7.193319798E-1
2.997699750E0,-4.527485046E0,-5.623206482E0,-3.474275208E-1,3.002727750E0,1.398674846E0,1.169868350E0,1.029364824E0
3.007755750E0,-4.335584106E0,-5.514532471E0,2.777174835E0,3.012783750E0,1.753208160E0,1.641498685E0,1.228307486E0
3.017811750E0,-4.166435852E0,-6.333479462E0,5.258265381E0,3.022839750E0,2.153887033E0,2.272746563E0,1.372964859E0
3.027866750E0,-4.042343903E0,-7.973469086E0,5.610782318E0,3.032894750E0,2.482495308E0,2.734942436E0,1.537552238E0
3.037922750E0,-3.983965302E0,-1.003692810E1,4.628824310E0,3.042950750E0,2.694782734E0,2.909951210E0,1.725255728E0
3.047978750E0,-4.371060333E0,-1.050829788E1,3.061882782E0,3.053006750E0,2.768024921E0,2.649271011E0,1.892330527E0
3.058034750E0,-4.231251068E0,-1.019499939E1,1.452579346E0,3.063061750E0,2.517157316E0,2.011080742E0,2.014449596E0
3.068089750E0,-3.687581635E0,-1.059391983E1,8.102650452E-1,3.073117750E0,2.022348404E0,1.270466089E0,1.993518472E0
3.078145750E0,-3.432362366E0,-1.111827942E1,1.016835480E0,3.083173750E0,1.576657414E0,2.972357273E-1,1.635062456E0
3.088201750E0,-3.233875122E0,-1.190339676E1,-1.004411316E-1,3.093229750E0,1.288997173E0,-1.281376481E0,1.136516094E0
3.098256750E0,-2.055675201E0,-1.217313583E1,-2.364782410E0,3.103284750E0,1.570942283E0,-2.876637936E0,9.046989679E-1
3.108312750E0,-2.439926147E-2,-1.030936157E1,-3.444636841E0,3.113340750E0,2.384604454E0,-2.957813501E0,8.154372573E-1
3.118368750E0,1.715582428E0,-8.230783997E0,-2.109563141E0,3.123396750E0,2.555561781E0,-3.872421384E-1,7.783145308E-1
3.128424750E0,1.913021851E0,-7.553891602E0,1.461710358E0,3.133451750E0,1.790105939E0,1.627436757E0,5.703866482E-1
3.138479750E0,7.890092468E-1,-6.595883789E0,1.776805115E-1,3.143507750E0,1.022200704E0,1.890226126E0,1.716383547E-1
3.148535750E0,2.812651062E-1,-5.863007812E0,-2.886447601E0,3.153563750E0,8.256362081E-1,1.495682597E0,-4.048960656E-2
3.158591750E0,-6.200106812E-1,-7.052584076E0,-2.954256592E0,3.163619750E0,9.793989658E-1,1.191259980E0,6.796494126E-3
3.168647750E0,-1.349892883E0,-8.337811432E0,-1.300046539E0,3.173674750E0,1.071809530E0,9.084305167E-1,7.017946243E-2
3.178702750E0,-1.694925385E0,-8.254285126E0,2.427951050E-1,3.183730750E0,1.097695351E0,7.515637875E-1,6.674284488E-2
3.188758750E0,-1.711540833E0,-8.312963104E0,1.374741211E0,3.193786750E0,1.111539245E0,6.084010601E-1,2.925166488E-2
3.198814750E0,-1.123264160E0,-9.013805695E0,1.332528992E0,3.203842750E0,1.271206021E0,7.282607555E-1,5.544445664E-2
3.208869750E0,-6.490502930E-1,-9.940678253E0,2.051783295E0,3.213897750E0,1.444666266E0,8.076905608E-1,1.479158103E-1
3.218925750E0,-4.032614136E-1,-1.025457550E1,1.436113586E0,3.223953750E0,1.643286347E0,7.653167844E-1,2.367388904E-1
3.228981750E0,-2.242337036E-1,-9.640252991E0,2.348616028E-1,3.234009750E0,1.791345596E0,4.621568620E-1,3.464384675E-1
3.239037750E0,-3.779640198E-1,-9.122180328E0,-1.264570312E0,3.244064750E0,1.806341767E0,8.763828874E-2,4.329243302E-1
3.249092750E0,-4.086502075E-1,-8.652606812E0,-2.243085480E0,3.254120750E0,1.687597513E0,-1.290660650E-1,4.886254072E-1
3.259148750E0,-2.704875183E-1,-8.493637390E0,-2.114053802E0,3.264176750E0,1.526302695E0,4.820017144E-3,5.773232579E-1
3.269204750E0,-2.944377136E-1,-8.998687134E0,-1.463506622E0,3.274232750E0,1.381935358E0,1.351942718E-1,6.598314643E-1
3.279259750E0,-4.504133606E-1,-9.554631042E0,-1.789079590E0,3.284287750E0,1.352277160E0,1.146537215E-1,7.129834890E-1
3.289315750E0,-7.331753540E-1,-9.753417664E0,-2.105970612E0,3.294343750E0,1.394157529E0,-7.054942101E-2,7.369716763E-1
3.299371750E0,-8.969348145E-1,-9.417516174E0,-1.969454498E0,3.304399750E0,1.430453539E0,-1.665034592E-1,6.938611269E-1
3.309427750E0,-1.093326416E0,-8.592581635E0,-9.358538818E-1,3.314455750E0,1.441895008E0,-5.857166275E-2,6.166635156E-1
3.319482750E0,-1.331032104E0,-7.951764221E0,-1.324745178E-1,3.324510750E0,1.412330508E0,1.411103308E-1,5.882651210E-1
3.329538750E0,-1.681902466E0,-8.047864380E0,-4.047583008E-1,3.334566750E0,1.218650341E0,3.210760951E-1,6.200339198E-1
3.339594750E0,-2.010768585E0,-9.005722504E0,-8.559201050E-1,3.344622750E0,8.491808772E-1,4.011669755E-1,6.655349135E-1
3.349650750E0,-2.251018982E0,-9.971065063E0,-7.577243042E-1,3.354677750E0,5.571311712E-1,2.908673584E-1,6.936755180E-1
3.359705750E0,-2.262694702E0,-1.062759979E1,-1.344204712E-1,3.364733750E0,4.391469955E-1,1.324747503E-1,6.201504469E-1
3.369761750E0,-2.399061127E0,-1.128353577E1,8.731343079E-1,3.374789750E0,3.767174482E-1,7.071579248E-2,5.017577410E-1
3.379817750E0,-2.500699768E0,-1.183947968E1,1.779349823E0,3.384845750E0,2.931533754E-1,5.236984789E-2,3.554469645E-1
3.389872750E0,-2.503693542E0,-1.206700653E1,1.905088348E0,3.394900750E0,2.133062184E-1,-5.153900944E-3,2.467716187E-1
3.399928750E0,-2.228266296E0,-1.283520905E1,1.546434174E0,3.404956750E0,1.998587400E-1,-9.778568149E-2,1.774745733E-1
3.409984750E0,-1.571132813E0,-1.348051712E1,1.153201904E0,3.415012750E0,2.874849737E-1,-8.137688041E-2,1.086155996E-1
3.420040750E0,-7.536827087E-1,-1.347797241E1,1.019380188E0,3.425067750E0,4.893743396E-1,1.744094789E-1,7.614795584E-3
3.430095750E0,-6.780899048E-2,-1.297905991E1,1.046174469E0,3.435123750E0,7.563692927E-1,6.798691750E-1,-1.367788762E-1
3.440151750E0,1.535806274E-1,-1.232911148E1,8.975335693E-1,3.445179750E0,9.381414056E-1,1.288446665E0,-2.854017615E-1
3.450207750E0,-8.801696777E-2,-1.191312653E1,9.565109253E-2,3.455235750E0,8.855351806E-1,1.730760932E0,-3.425175250E-1
3.460263750E0,-3.426374817E-1,-1.217074081E1,-1.589694214E0,3.465290750E0,5.194514990E-1,1.899747491E0,-2.523094416E-1
3.470318750E0,-4.132905579E-1,-1.331271606E1,-3.145558777E0,3.475346750E0,-3.167161345E-1,1.758204699E0,-6.731002778E-2
3.480374750E0,-3.541635132E-1,-1.453537354E1,-3.160827026E0,3.485402750E0,-1.202779412E0,8.884015679E-1,6.998091936E-2
3.490430750E0,2.677931213E-1,-1.534159698E1,-2.124532013E0,3.495458750E0,-1.257063985E0,1.559041589E-1,-1.055632010E-1
3.500485750E0,7.786807251E-1,-1.549143539E1,3.028202820E-1,3.505513750E0,-1.352756262E0,2.175656408E-1,-3.237996995E-1
3.510541750E0,9.083111572E-1,-1.363155304E1,9.348060608E-1,3.515569750E0,-1.934488893E0,7.059776783E-1,-5.769507885E-1
3.520597750E0,3.176394653E-1,-1.065738785E1,1.233285370E0,3.525625750E0,-2.403103113E0,1.037657738E0,-9.417403936E-1
3.530653750E0,-9.639953613E-2,-8.406368866E0,2.051932983E0,3.535681750E0,-2.425840139E0,1.003355980E0,-1.252157331E0
3.540708750E0,-1.072070618E0,-7.410489807E0,8.669970703E-1,3.545736750E0,-2.265589476E0,9.614085555E-1,-1.525895953E0
3.550764750E0,-2.369871826E0,-6.897955627E0,1.353186035E-1,3.555792750E0,-2.188288212E0,9.474589229E-1,-1.852227926E0
3.560820750E0,-3.299139404E0,-6.903943176E0,-3.498225403E-1,3.565848750E0,-2.214709282E0,6.847123504E-1,-2.151256323E0
3.570876750E0,-3.898642731E0,-7.642507324E0,-1.110690308E0,3.575903750E0,-2.178258419E0,3.448751569E-1,-2.264940977E0
3.580931750E0,-5.315296783E0,-9.793384552E0,-1.377734985E0,3.585959750E0,-2.090554237E0,6.180420518E-2,-2.188697815E0
3.590987750E0,-7.224875793E0,-1.258418106E1,-1.514849854E0,3.596015750E0,-1.991511583E0,-1.299654990E-1,-2.011138916E0
3.601043750E0,-8.521928558E0,-1.522813293E1,-6.825805664E-1,3.606071750E0,-1.940271735E0,4.967472702E-2,-1.824065089E0
3.611098750E0,-9.206604767E0,-1.694835571E1,1.832339630E0,3.616126750E0,-1.938182473E0,3.401773870E-1,-1.473163605E0
3.621154750E0,-1.000220032E1,-1.770398438E1,1.814526672E0,3.626182750E0,-1.892594337E0,2.778206468E-1,-9.997709990E-1
3.631210750E0,-1.008198441E1,-1.739966721E1,-9.942324829E-1,3.636238750E0,-1.774997592E0,1.761424989E-1,-6.732224226E-1
3.641266750E0,-9.060059509E0,-1.466186050E1,-2.573298798E0,3.646293750E0,-1.703922629E0,3.028976321E-1,-6.111560464E-1
3.651321750E0,-7.568112030E0,-1.188199127E1,-2.585872650E0,3.656349750E0,-1.602198124E0,8.047010899E-1,-6.934837103E-1
3.661377750E0,-6.098617859E0,-1.026116180E1,-1.123264160E0,3.666405750E0,-1.145665526E0,1.627582669E0,-1.100573063E0
3.671433750E0,-3.748205566E0,-8.109386444E0,1.137334900E0,3.676461750E0,-6.724318862E-1,2.090144873E0,-1.346697927E0
3.681489750E0,-1.328188019E0,-8.939859467E0,7.376660156E-1,3.686516750E0,-5.881894827E-1,2.375844717E0,-1.335519314E0
3.691544750E0,-1.595681763E-1,-9.569899292E0,1.924996948E-1,3.696572750E0,-6.028970480E-1,1.669630051E0,-1.739317894E0
3.701600750E0,1.937720490E0,-7.933801575E0,-9.601034546E-1,3.706628750E0,-1.126664519E0,1.062654495E0,-2.115576029E0
3.711656750E0,2.318528595E0,-8.186027069E0,-1.487606506E0,3.716684750E0,-1.749917865E0,-6.563895941E-2,-2.081484795E0
3.721711750E0,1.440604248E0,-9.140442352E0,-2.537523193E0,3.726739750E0,-2.056297064E0,-9.298125505E-1,-1.713493466E0
3.731767750E0,7.984396362E-1,-8.219557343E0,-2.161355438E0,3.736795750E0,-2.183630466E0,-1.737543106E0,-1.557113171E0
3.741823750E0,-6.227050781E-2,-6.252497864E0,-2.245630188E0,3.746851750E0,-2.139622211E0,-2.250913143E0,-1.538308859E0
3.751879750E0,-9.771679688E-1,-5.607489166E0,-1.551972656E0,3.756907750E0,-2.054598093E0,-2.532394648E0,-1.513339400E0
3.761934750E0,-1.532513123E0,-5.176834717E0,-6.960525513E-1,3.766962750E0,-2.078969240E0,-2.818001270E0,-1.394071937E0
3.771990750E0,-1.643881531E0,-4.562961273E0,-8.029302979E-1,3.777018750E0,-1.990764856E0,-3.133395672E0,-1.426224470E0
3.782046750E0,-1.593436432E0,-4.068988495E0,1.484912109E-1,3.787074750E0,-1.895251513E0,-3.055787802E0,-1.396762371E0
3.792102750E0,-1.667532349E0,-3.844006348E0,1.270857239E0,3.797129750E0,-1.699474216E0,-3.010982990E0,-1.244018316E0
3.802157750E0,-1.429826660E0,-3.712879028E0,1.113534393E0,3.807185750E0,-1.401584744E0,-2.926669121E0,-1.073603034E0
3.812213750E0,-1.377884674E0,-3.569327545E0,1.104253693E0,3.817242167E0,-1.106054187E0,-2.836953640E0,-9.073701501E-1
3.822270167E0,-1.664987640E0,-3.429667969E0,5.129832458E-1,3.827298167E0,-7.635796666E-1,-2.749560833E0,-7.384964228E-1
3.832325167E0,-2.114053802E0,-3.536695404E0,-1.332229614E-2,3.837353167E0,-3.571546674E-1,-2.638219595E0,-5.706467032E-1
3.842381167E0,-2.541864166E0,-3.560645599E0,-2.442919922E-1,3.847409167E0,9.138394892E-2,-2.456549644E0,-3.840057850E-1
3.852437167E0,-2.951711884E0,-3.442690887E0,3.547622681E-2,3.857465167E0,4.984183013E-1,-2.307702303E0,-1.853946745E-1
3.862493167E0,-3.031645660E0,-3.188818817E0,-3.537144470E-1,3.867521167E0,8.042634726E-1,-2.267244577E0,1.255615987E-2
3.872548167E0,-3.013832703E0,-3.129542084E0,-1.169817352E0,3.877576167E0,1.056008935E0,-2.274608612E0,1.684080809E-1
3.882604167E0,-2.450703735E0,-2.888393555E0,-1.585203552E0,3.887632167E0,1.240115643E0,-2.330852032E0,3.575155437E-1
3.892660167E0,-1.474882965E0,-3.273542633E0,-2.051034851E0,3.897688167E0,1.464782000E0,-2.230278730E0,5.550810695E-1
3.902716167E0,-8.867559814E-1,-3.543281708E0,-1.991907806E0,3.907743167E0,1.719086766E0,-2.099972010E0,6.747176051E-1
3.912771167E0,-6.962022400E-1,-3.269051971E0,-2.091750183E0,3.917799167E0,2.014590979E0,-1.966062546E0,7.675626278E-1
3.922827167E0,-1.062340851E0,-3.612437897E0,-2.507735138E0,3.927855167E0,2.222034454E0,-1.891570449E0,8.775178790E-1
3.932883167E0,-1.671424255E0,-5.161566467E0,-3.694467316E0,3.937911167E0,2.036189795E0,-1.768021822E0,1.024542451E0
3.942938167E0,-2.361489258E0,-7.491022339E0,-6.772366791E0,3.947966167E0,9.749144912E-1,-1.397634387E0,1.255143881E0
3.952994167E0,-2.530637512E0,-1.173739197E1,-1.228959366E1,3.958022167E0,3.881825209E-1,-1.728538275E0,1.315935850E0
3.963050167E0,-1.868713989E0,-1.781744843E1,-1.351105362E1,3.968078167E0,-9.152359515E-2,-1.252996445E0,7.736468315E-1
3.973106167E0,-5.590873718E-1,-2.503019943E1,-6.396797791E0,3.978134167E0,-2.114074469E0,1.515361518E-1,-8.059296608E-1
3.983161167E0,1.760489044E0,-3.566273895E1,-1.048210236E1,3.988189167E0,-2.814383030E0,-9.510977268E-1,-2.265547514E0
3.993217167E0,2.543959808E0,-3.613800064E1,-1.975831238E1,3.998245167E0,-2.613759041E0,-2.505046368E0,-2.585892677E0
4.003273167E0,1.571581879E0,-2.322929443E1,-1.675929886E1,4.008301167E0,-2.078726530E0,-3.077623129E0,-2.652512789E0
4.013329167E0,2.313289490E0,-1.386117554E1,-1.057221497E1,4.018356167E0,-1.549605370E0,-2.809162378E0,-2.393822432E0
4.023384167E0,2.162103882E0,-8.384813690E0,-6.673422546E0,4.028412167E0,-1.251375318E0,-1.981681943E0,-1.879075408E0
4.033440167E0,9.044192505E-1,-2.152374115E0,-4.158951416E0,4.038468167E0,-1.145493627E0,-1.136352181E0,-1.302552462E0
4.043496167E0,-3.598516846E-1,2.245779877E0,-4.518653412E0,4.048524167E0,-9.230813980E-1,-5.171623826E-1,-7.813456655E-1
4.053551167E0,-5.375321960E-1,3.244952087E0,-7.043003998E0,4.058579167E0,-5.437828302E-1,1.092169620E-2,-3.685828745E-1
4.063607167E0,-7.566764832E-1,1.500479736E0,-7.891888733E0,4.068635167E0,-6.911607832E-2,8.145639300E-1,2.489741445E-1
4.073663167E0,-2.986589355E0,-4.504133606E0,-5.408403168E0,4.078691167E0,-1.119958982E-1,9.550930262E-1,1.050631762E0
4.083719167E0,-7.913294220E0,-1.385863083E1,-8.592731323E0,4.088747167E0,-2.638808489E-1,7.687612772E-1,1.910596490E0
4.093774167E0,-1.312635361E1,-2.330608475E1,-3.175496521E0,4.098802167E0,-7.080265880E-1,1.760488629E0,2.424735546E0
4.103830167E0,-1.654195084E1,-2.901745789E1,1.067145859E1,4.108858167E0,-8.130960464E-1,1.294703364E0,1.684585094E0
4.113886167E0,-1.719848557E1,-2.024839325E1,7.544610901E0,4.118914167E0,-7.696980983E-2,-1.086672470E-1,6.979497522E-2
4.123942167E0,-1.004156845E1,-5.473517761E0,3.216062164E0,4.128969167E0,3.975779712E-1,3.081582785E-1,2.348888107E-2
4.133997167E0,-3.873944092E0,-3.982618103E0,6.153403931E0,4.139025167E0,8.628864884E-1,1.333718896E0,8.491495997E-2
4.144053167E0,-1.726210327E0,-2.093845825E0,7.664212189E0,4.149081167E0,1.406766176E0,1.447270870E0,4.337444901E-1
4.154109167E0,-2.422562256E0,-5.528603210E0,5.893244934E0,4.159137167E0,1.475899458E0,1.287441254E0,8.646458387E-1
4.164165167E0,-4.429438934E0,-6.888076172E0,3.745211792E0,4.169192167E0,1.501797795E0,1.517061353E0,1.154086471E0
4.174220167E0,-4.230951691E0,-6.762487335E0,5.085674286E0,4.179248167E0,1.689092040E0,2.123855352E0,1.391921997E0
4.184276167E0,-4.464316406E0,-8.488248596E0,6.659501495E0,4.189304167E0,2.106628895E0,2.740424871E0,1.682550907E0
4.194332167E0,-4.972210236E0,-1.093985046E1,5.740861816E0,4.199360167E0,2.722991705E0,2.964115381E0,2.005792379E0
4.204387167E0,-5.393284607E0,-1.275632309E1,2.693049774E0,4.209415167E0,3.153407097E0,2.832416058E0,2.177042246E0
4.214443167E0,-5.051395569E0,-1.196207474E1,1.526226196E0,4.219471167E0,3.279692650E0,2.623106003E0,2.095982552E0
4.224499167E0,-4.538262634E0,-9.777966614E0,1.875749359E0,4.229527167E0,3.191563129E0,2.199991941E0,1.965794563E0
4.234555167E0,-3.674409027E0,-9.036558380E0,1.417851562E0,4.239582167E0,2.920960188E0,1.573263764E0,1.877779245E0
4.244610167E0,-2.508333893E0,-9.549841003E0,1.093775482E0,4.249638167E0,2.539747953E0,8.251553178E-1,1.698684335E0
4.254666167E0,-2.066303101E0,-1.077818665E1,6.816824341E-1,4.259694167E0,2.179834127E0,-2.323702276E-1,1.259628892E0
4.264722167E0,-1.603615265E0,-1.223346039E1,-9.523196411E-1,4.269750167E0,2.006635666E0,-1.123780727E0,6.579231620E-1
4.274778167E0,3.281176758E-1,-1.209649521E1,-2.037562866E0,4.279805167E0,1.971734405E0,-5.872959495E-1,6.862047315E-2
4.284833167E0,2.636168060E0,-9.576186218E0,-4.652325439E-1,4.289861167E0,1.762042642E0,6.752163172E-1,-2.399917841E-1
4.294889167E0,3.299139404E0,-8.100854187E0,2.668949890E-1,4.299917167E0,1.590865850E0,1.350951552E0,-2.260932922E-1
4.304945167E0,3.013084259E0,-7.764653320E0,-1.200653229E0,4.309973167E0,1.474468470E0,1.157964349E0,-6.772491336E-2
4.315000167E0,2.624791718E0,-7.348967743E0,-2.931803284E0,4.320028167E0,1.272083998E0,6.130613685E-1,-9.799029678E-3
4.325056167E0,8.756790161E-1,-6.299051056E0,-3.039130096E0,4.330084167E0,1.072497606E0,3.271856308E-1,-1.098017246E-1
4.335112167E0,-6.057902527E-1,-6.328240356E0,-1.899998932E0,4.340140167E0,9.221668839E-1,3.459904790E-1,-1.585277170E-1
4.345168167E0,-9.511221313E-1,-7.519912262E0,-4.605921936E-1,4.350196167E0,8.425235748E-1,5.426455736E-1,-2.078065425E-1
4.355223167E0,-1.571881256E0,-8.415948944E0,9.795629883E-1,4.360251167E0,8.482989073E-1,8.605364561E-1,-2.467600703E-1
4.365279167E0,-1.908082123E0,-9.045839081E0,2.355352020E0,4.370307167E0,1.034477472E0,1.299017906E0,-1.557716876E-1
4.375335167E0,-1.938618622E0,-9.978848877E0,3.265309753E0,4.380363167E0,1.258095980E0,1.226224184E0,-5.300697312E-2
4.385391167E0,-1.978884888E0,-1.034109558E1,1.557511139E0,4.390418167E0,1.513043761E0,8.617359996E-1,6.565497816E-2
4.395446167E0,-2.089804230E0,-1.002136047E1,1.954934692E-1,4.400474167E0,1.737417221E0,5.994530320E-1,1.887193769E-1
4.405502167E0,-1.938019867E0,-9.065897369E0,2.604583740E-2,4.410530167E0,1.939949512E0,4.807922542E-1,2.899532616E-1
4.415558167E0,-1.837578735E0,-8.232729950E0,-3.761677551E-1,4.420586167E0,2.043190002E0,2.850086391E-1,3.975939751E-1
4.425614167E0,-1.470092926E0,-7.686216431E0,-1.680106201E0,4.430641167E0,1.996391892E0,7.219807804E-2,4.767626226E-1
4.435669167E0,-8.422984314E-1,-7.090754700E0,-2.339185638E0,4.440697167E0,1.825498939E0,2.195568196E-2,5.468266606E-1
4.445725167E0,-5.361849976E-1,-6.873406677E0,-2.003134460E0,4.450753167E0,1.619065166E0,1.276260614E-1,6.172860265E-1
4.455781167E0,-6.623725891E-1,-7.001839600E0,-1.723515930E0,4.460809167E0,1.457467437E0,1.724728942E-1,6.781136990E-1
4.465836167E0,-1.073567505E0,-7.635621643E0,-1.924697571E0,4.470864167E0,1.422493935E0,1.403212845E-1,7.370220423E-1
4.475892167E0,-1.609902191E0,-8.680299225E0,-1.781744843E0,4.480920167E0,1.493287206E0,1.063108370E-1,7.705448270E-1
4.485948167E0,-2.159259796E0,-9.422904968E0,-1.307680664E0,4.490976167E0,1.533372402E0,1.036938727E-1,7.920873761E-1
4.496004167E0,-2.590363312E0,-9.960137787E0,-9.695338440E-1,4.501031167E0,1.443859577E0,1.768495739E-1,8.215049505E-1
4.506059167E0,-2.769091644E0,-1.048105453E1,-7.641609192E-1,4.511087167E0,1.146422625E0,2.496834844E-1,8.932438493E-1
4.516115167E0,-2.731819153E0,-1.125359802E1,-6.523434448E-1,4.521143167E0,7.960271239E-1,2.618474960E-1,9.469246864E-1
4.526171167E0,-2.549797668E0,-1.155746613E1,-5.116360474E-1,4.531199167E0,5.876085758E-1,2.365528494E-1,9.403352141E-1
4.536227167E0,-2.488125916E0,-1.157168655E1,-1.893562317E-1,4.541254167E0,4.335446954E-1,2.020252347E-1,8.706016541E-1
4.546282167E0,-2.299069061E0,-1.145223495E1,7.036866760E-1,4.551310167E0,2.342570871E-1,2.451658249E-1,7.836119533E-1
4.556338167E0,-1.837279358E0,-1.127485382E1,1.779798889E0,4.561366167E0,4.767175764E-2,2.537755668E-1,7.519695759E-1
4.566394167E0,-1.074315948E0,-1.161943726E1,2.119292908E0,4.571422167E0,-6.830104440E-2,2.791087888E-2,7.597220540E-1
4.576449167E0,4.805007935E-2,-1.238120316E1,1.928888855E0,4.581477167E0,7.589849411E-4,-5.419888496E-1,7.057150006E-1
4.586505167E0,1.598525848E0,-1.312380890E1,1.340013428E0,4.591533167E0,3.856882155E-1,-8.671803474E-1,4.496383071E-1
4.596561167E0,3.121309204E0,-1.357212662E1,1.837129669E0,4.601589167E0,9.045643806E-1,-2.819749117E-1,6.542964280E-2
4.606617167E0,3.978576508E0,-1.336046677E1,3.138074341E0,4.611645167E0,1.188644409E0,9.528388381E-1,-3.121163249E-1
4.616672167E0,3.349135437E0,-1.230321533E1,2.759810944E0,4.621700167E0,1.172320008E0,1.904195070E0,-5.969972610E-1
4.626728167E0,1.413959656E0,-1.165551224E1,1.068777466E-1,4.631756167E0,1.023809433E0,2.153119326E0,-6.943284869E-1
4.636784167E0,-8.532257080E-2,-1.202374649E1,-3.015778656E0,4.641812167E0,6.004539132E-1,1.926101327E0,-5.102508068E-1
4.646840167E0,-1.249601440E0,-1.296768356E1,-4.805307312E0,4.651867167E0,-1.484159827E-1,1.539477468E0,-2.240591794E-1
4.656895167E0,-8.345146179E-1,-1.380534164E1,-3.769910431E0,4.661923167E0,-8.384713531E-1,1.136802673E0,-2.477430180E-2
4.666951167E0,4.581971741E-1,-1.446696579E1,-3.947291565E-1,4.671979167E0,-1.125302434E0,7.545742393E-1,-6.345180422E-2
4.677007167E0,3.366499329E-1,-1.537602539E1,9.180409241E-1,4.682035167E0,-1.290793180E0,4.539624751E-1,-2.197916061E-1
4.687062167E0,-1.649569702E-1,-1.439721085E1,6.002517700E-1,4.692090167E0,-1.684780002E0,5.614792705E-1,-5.027925372E-1
4.697118167E0,1.757345581E-1,-1.187899750E1,1.640738068E0,4.702146167E0,-2.187191963E0,8.395303488E-1,-7.767149210E-1
4.707174167E0,-7.574249268E-2,-9.519304504E0,2.713856506E0,4.712202167E0,-2.403557539E0,7.874106169E-1,-1.083936453E0
4.717230167E0,-9.969268799E-1,-7.862998810E0,1.360670471E0,4.722258167E0,-2.251032114E0,7.286019325E-1,-1.400023341E0
4.727285167E0,-2.555635529E0,-7.053182831E0,-6.810836792E-2,4.732313167E0,-2.145489454E0,7.014549375E-1,-1.755409718E0
4.737341167E0,-4.576283569E0,-7.071594543E0,-1.136736145E0,4.742369167E0,-2.168408155E0,8.891361952E-1,-2.038235188E0
4.747397167E0,-6.299350433E0,-8.191864929E0,-6.421646118E-1,4.752425167E0,-2.208831072E0,9.527723193E-1,-2.212178230E0
4.757453167E0,-6.999743958E0,-9.689051514E0,-8.979826355E-1,4.762480167E0,-2.237134695E0,7.785770893E-1,-2.181363344E0
4.767508167E0,-8.038134613E0,-1.158216476E1,-1.922901306E0,4.772536167E0,-2.152049065E0,5.890925527E-1,-2.004708767E0
4.777564167E0,-8.975036316E0,-1.381342484E1,-1.818867645E0,4.782592167E0,-1.944687724E0,4.635628462E-1,-1.797521472E0
4.787620167E0,-9.054970093E0,-1.538395889E1,-8.226892090E-1,4.792648167E0,-1.800011158E0,6.010874510E-1,-1.494423032E0
4.797675167E0,-8.712182922E0,-1.639615402E1,7.229965210E-1,4.802703167E0,-1.767213821E0,7.026968598E-1,-1.040989995E0
4.807731167E0,-8.561446381E0,-1.656170975E1,6.975494385E-2,4.812759167E0,-1.866485476E0,5.707681179E-1,-7.011863589E-1
4.817787500E0,-8.167166290E0,-1.475317062E1,-2.045496368E0,4.822815500E0,-1.946978807E0,2.884544134E-1,-6.371091008E-1
4.827843500E0,-6.987319794E0,-1.191372528E1,-3.291056213E0,4.832871500E0,-1.872931480E0,1.153424531E-1,-8.193407059E-1
4.837898500E0,-5.338199158E0,-1.019499939E1,-2.900069275E0,4.842926500E0,-1.777065396E0,2.690824866E-1,-9.759473801E-1
4.847954500E0,-3.722908173E0,-9.561816101E0,-1.543440399E0,4.852982500E0,-1.648453832E0,6.345065236E-1,-9.847695231E-1
4.858010500E0,-1.490151215E0,-8.849447479E0,-2.098635864E-1,4.863038500E0,-1.502578855E0,6.422731280E-1,-1.008794188E0
4.868066500E0,1.302291870E-2,-8.641529846E0,-4.978646851E-1,4.873093500E0,-1.425072193E0,5.182640553E-1,-1.212598443E0
4.878121500E0,9.541159058E-1,-8.227191467E0,-1.212478638E-2,4.883149500E0,-1.455671310E0,6.204423308E-1,-1.604104161E0
4.888177500E0,1.959575043E0,-7.179520111E0,9.819580078E-1,4.893205500E0,-1.609076738E0,6.963026524E-1,-2.006707430E0
4.898233500E0,2.586621094E0,-7.937693481E0,-1.667532349E-1,4.903261500E0,-1.829306245E0,2.621919215E-1,-1.951989293E0
4.908288500E0,1.328038330E0,-8.693322144E0,-2.820434875E0,4.913316500E0,-1.815601468E0,-6.562832594E-1,-1.844049335E0
4.918344500E0,-1.442999268E-1,-7.709567871E0,-3.351081390E0,4.923372500E0,-1.745076895E0,-1.340470076E0,-1.773699284E0
4.928400500E0,-1.253193970E0,-6.850204926E0,-1.637145538E0,4.933428500E0,-1.788514376E0,-1.709083796E0,-1.663347840E0
4.938456500E0,-2.091001740E0,-6.189478912E0,-7.355703735E-1,4.943484500E0,-1.788023710E0,-2.090377331E0,-1.606809258E0
4.948511500E0,-2.567011871E0,-5.787864075E0,-6.390211487E-1,4.953539500E0,-1.740677238E0,-2.361835241E0,-1.609216332E0
4.958567500E0,-2.810405731E0,-5.512137451E0,-8.547225952E-2,4.963595500E0,-1.680679679E0,-2.509351969E0,-1.553978443E0
4.968623500E0,-2.869233398E0,-5.379064178E0,3.363505554E-1,4.973651500E0,-1.592563987E0,-2.652044058E0,-1.440532088E0
4.978679500E0,-2.631228333E0,-4.891677704E0,1.466949463E-1,4.983706500E0,-1.475203753E0,-2.880446911E0,-1.277266502E0
4.988734500E0,-2.123035126E0,-4.598437500E0,-1.683998108E-1,4.993762500E0,-1.258182287E0,-2.948257208E0,-1.124895930E0
4.998790500E0,-1.612596588E0,-4.544848938E0,-1.182540894E-2,5.003818500E0,-9.363009930E-1,-2.820954561E0,-9.847313166E-1
5.008846500E0,-1.464255066E0,-4.492008820E0,-4.311035156E-2,5.013874500E0,-5.795665383E-1,-2.631928682E0,-7.875935435E-1
5.018902500E0,-1.708996124E0,-3.959266663E0,-1.606159973E-1,5.023929500E0,-2.096284330E-1,-2.500755548E0,-5.989688039E-1
5.028957500E0,-2.165546722E0,-3.270698547E0,-2.906954956E-1,5.033985500E0,1.668614745E-1,-2.347994566E0,-3.942509592E-1
5.039013500E0,-2.543361053E0,-2.994223480E0,-3.436853027E-1,5.044041500E0,4.835286438E-1,-2.262360811E0,-1.575273424E-1
5.049069500E0,-2.674039307E0,-2.864143982E0,-7.086264038E-1,5.054097500E0,7.363621593E-1,-2.218091965E0,7.263899595E-2
5.059124500E0,-2.590513000E0,-2.835703125E0,-1.092278595E0,5.064152500E0,9.959229231E-1,-2.144240379E0,3.045952618E-1
5.069180500E0,-2.081571350E0,-2.798131256E0,-1.537303162E0,5.074208500E0,1.306112766E0,-2.003537893E0,5.362032652E-1
5.079236500E0,-1.321751404E0,-2.634820862E0,-1.573078766E0,5.084264500E0,1.627045751E0,-1.773318648E0,7.640274167E-1
5.089292500E0,-7.662565613E-1,-2.320624237E0,-1.778302002E0,5.094319500E0,1.794447660E0,-1.681057930E0,1.023421526E0
5.099347500E0,-6.761439514E-1,-2.908900909E0,-2.808310089E0,5.104375500E0,1.916475058E0,-1.666199684E0,1.181260705E0
5.109403500E0,-4.194277954E-1,-3.185375977E0,-3.981869659E0,5.114431500E0,2.111013174E0,-1.505448341E0,1.227293849E0
5.119459500E0,-5.016069031E-1,-4.219425659E0,-4.306245117E0,5.124487500E0,2.056806564E0,-1.232693553E0,1.367449045E0
5.129515500E0,-1.764830017E0,-6.743776245E0,-6.912774811E0,5.134542500E0,1.448515415E0,-1.226177931E0,1.500839233E0
5.139570500E0,-2.418969727E0,-1.045126648E1,-1.349773132E1,5.144598500E0,5.237724185E-1,-1.952023387E0,1.555906177E0
5.149626500E0,-2.245181122E0,-1.678818878E1,-1.805365723E1,5.154654500E0,7.086270303E-2,-2.357651234E0,1.070895195E0
5.159682500E0,-1.327140198E0,-2.534903641E1,-1.144100830E1,5.164710500E0,-1.331830144E0,-1.176661372E0,-1.003646329E-1
5.169737500E0,1.859133911E-1,-3.634442139E1,-8.772956543E0,5.174765500E0,-2.240644693E0,-1.289611936E0,-1.840694785E0
5.179793500E0,1.859133911E0,-3.462180359E1,-1.592972397E1,5.184821500E0,-2.308931351E0,-1.968259335E0,-2.562628746E0
5.189849500E0,3.216810608E-1,-2.245106277E1,-1.513817001E1,5.194877500E0,-2.011340618E0,-2.129059315E0,-2.700351715E0
5.199905500E0,1.515897675E0,-1.257954071E1,-9.696985016E0,5.204932500E0,-1.509765863E0,-1.673389196E0,-2.317846775E0
5.209960500E0,2.720293121E0,-6.849007416E0,-5.721252594E0,5.214988500E0,-1.317685723E0,-1.117903709E0,-1.595789075E0
5.220016500E0,2.661914520E0,-6.251000977E-1,-3.694916382E0,5.225044500E0,-1.269666314E0,-5.729461312E-1,-9.098344445E-1
5.230072500E0,2.251767426E0,4.800217896E0,-4.324207764E0,5.235100500E0,-1.017242074E0,-8.731968701E-2,-2.780416906E-1
5.240128500E0,9.168434143E-1,4.865182800E0,-9.363179169E0,5.245155500E0,-5.850307643E-2,-9.152455628E-2,3.613622189E-1
5.250183500E0,-1.287322998E-2,1.895358582E0,-1.047910858E1,5.255211500E0,6.308203936E-1,9.463220239E-1,7.903868556E-1
5.260239500E0,-1.396745453E0,9.800120544E-1,1.789528656E0,5.265267500E0,5.394777060E-1,1.148031950E0,1.012434840E0
5.270295500E0,-6.967261505E0,-4.990172882E0,1.395398254E0,5.275323500E0,8.183116913E-1,6.104266047E-1,1.396581054E0
5.280350500E0,-1.314671127E1,-1.720013214E1,4.199367371E0,5.285378500E0,1.007906199E0,7.578128576E-1,1.656013727E0
5.290406500E0,-1.846290619E1,-2.507196259E1,9.774972839E0,5.295434500E0,1.189424038E0,1.905825883E-1,1.476871848E0
5.300462500E0,-2.239163635E1,-2.615241577E1,1.929337921E0,5.305490500E0,9.825565815E-1,-5.473662615E-1,7.154698968E-1
5.310518500E0,-1.690883789E1,-1.849224518E1,-2.382894745E0,5.315545500E0,6.831944585E-1,6.737162173E-2,-4.265474901E-2
5.320573500E0,-6.539900208E-1,-1.247386047E1,6.187233582E0,5.325601500E0,3.908094764E-1,1.026336432E0,-3.665058017E-1
5.330629500E0,3.396586761E0,-1.041983185E1,1.457279572E1,5.335657500E0,2.714289725E-1,2.138310909E0,-2.556844950E-1
5.340685500E0,-1.266516266E0,-9.451645203E0,1.312186295E1,5.345713500E0,5.604698658E-1,3.000364304E0,7.769639790E-2
5.350740500E0,-4.066593475E0,-1.067175797E1,6.697672119E0,5.355768500E0,1.464140773E0,2.823538303E0,4.960677326E-1
5.360796500E0,-4.712200928E0,-1.140328674E1,-2.874023438E-1,5.365824500E0,2.590236902E0,2.106929541E0,8.772470951E-1
5.370852500E0,-4.822072449E0,-9.717941437E0,-1.344803467E0,5.375880500E0,3.097945929E0,1.843985200E0,1.041652441E0
5.380908500E0,-5.025499420E0,-7.339836731E0,2.177372131E0,5.385935500E0,3.150748491E0,1.967328191E0,1.200345635E0
5.390963500E0,-4.507127380E0,-6.803502045E0,3.329226837E0,5.395991500E0,3.045854807E0,2.229470253E0,1.474447727E0
5.401019500E0,-4.050876160E0,-7.095095673E0,3.063679047E0,5.406047500E0,2.879579544E0,2.420171738E0,1.727689266E0
5.411075500E0,-3.561394043E0,-7.412435760E0,2.544558563E0,5.416103500E0,2.525922060E0,2.294647455E0,1.938069105E0
5.421131500E0,-3.024011536E0,-8.541687469E0,1.753004608E0,5.426158500E0,1.896073580E0,1.557557821E0,1.946834087E0
5.431186500E0,-2.710862732E0,-1.055006104E1,8.957373047E-1,5.436214500E0,1.040788293E0,3.645413220E-1,1.394592285E0
5.441242500E0,-2.797233124E0,-1.213915649E1,8.893006897E-1,5.446270500E0,4.972507358E-1,-8.555243611E-1,7.612714767E-1
5.451298500E0,-2.343526611E0,-1.202524338E1,1.059347076E0,5.456326500E0,6.644634604E-1,-1.264657617E0,5.653661489E-1
5.461353500E0,-1.128054199E0,-1.014245865E1,1.202000427E0,5.466381500E0,1.575311899E0,-6.740999818E-1,6.598319411E-1
5.471409500E0,2.909948730E-1,-8.161178741E0,-1.977238312E0,5.476437500E0,1.722546101E0,5.476410314E-2,7.385847718E-2
5.481465500E0,2.503843231E0,-5.733676758E0,-2.915187836E0,5.486493500E0,1.668586731E0,1.078794241E0,-1.948698878E0
5.491521500E0,1.021655457E1,-8.338260498E0,1.454525299E0,5.496548500E0,1.531047702E0,1.940455914E0,-1.769744515E0
5.501576500E0,2.294877777E0,-1.020218445E1,2.219434662E0,5.506604500E0,1.730584741E0,3.119665623E0,-1.033799171E0
5.511632500E0,-2.170037384E0,-8.043822784E0,4.617597656E0,5.516660500E0,1.920955896E0,4.231884956E0,-6.334136724E-1
5.521688500E0,-2.956651611E0,-5.584586792E0,4.504432983E0,5.526716500E0,1.999669909E0,4.159081936E0,-5.973733664E-1
5.531744500E0,-5.805826721E0,-4.500541077E0,-2.463876343E-1,5.536771500E0,1.963938951E0,3.080430746E0,-4.110778570E-1
5.541799500E0,-6.336622925E0,-7.316335602E0,-3.478167114E0,5.546827500E0,1.758914471E0,1.924361467E0,2.364092916E-1
5.551855500E0,-5.266498260E0,-9.891580353E0,-2.225871277E0,5.556883500E0,1.517820954E0,1.175869465E0,8.078859448E-1
5.561911500E0,-4.597838745E0,-9.159003754E0,-7.146139526E-1,5.566939500E0,1.407648087E0,2.406107783E-1,1.093252182E0
5.571966500E0,-3.154989166E0,-8.562194824E0,-1.620081024E0,5.576994500E0,1.498054981E0,-8.726524711E-1,1.234502077E0
5.582022500E0,-1.360371094E0,-9.090446320E0,-2.051633606E0,5.587050500E0,1.710394144E0,-1.791399717E0,1.228891373E0
5.592078500E0,7.274871826E-2,-9.593550110E0,-1.721719666E0,5.597106500E0,1.928297520E0,-2.060688734E0,1.112349391E0
5.602134500E0,1.510359192E0,-9.999505920E0,-1.234632568E0,5.607161500E0,1.811769009E0,-1.300994158E0,9.636800289E-1
5.612189500E0,2.747985535E0,-1.053464310E1,-3.718267822E-1,5.617217500E0,1.406589508E0,-6.642175466E-2,8.224323392E-1
5.622245500E0,3.660188599E0,-1.090766739E1,-1.191522217E-1,5.627273500E0,1.121110559E0,7.033774853E-1,7.954603434E-1
5.632301500E0,4.105362854E0,-1.103610031E1,-1.521286469E0,5.637329500E0,1.103286624E0,8.067911863E-1,9.176365733E-1
5.642356500E0,3.978127441E0,-1.112785950E1,-2.415227509E0,5.647384500E0,1.245910048E0,6.571987867E-1,9.519956112E-1
5.652412500E0,2.299368439E0,-1.002585114E1,-1.625918884E0,5.657440500E0,1.382235408E0,4.322562218E-1,8.476663232E-1
5.662468500E0,2.868035889E-1,-9.317823486E0,-1.240021362E0,5.667496500E0,1.369786978E0,1.946692318E-1,8.583852649E-1
5.672524500E0,-8.337661743E-1,-1.003917343E1,-1.448088684E0,5.677551500E0,1.177235007E0,1.085532904E-1,9.424245358E-1
5.682579500E0,-1.442250824E0,-1.088730972E1,-1.404379578E0,5.687607500E0,7.847247124E-1,3.730921075E-2,1.016079307E0
5.692635500E0,-1.097667389E0,-1.172421936E1,-1.922901306E0,5.697663500E0,3.543849587E-1,-6.039109826E-2,1.036365032E0
5.702691500E0,-3.478765869E-1,-1.181732574E1,-1.348246307E0,5.707719500E0,1.395775825E-1,-1.792575717E-1,9.708237648E-1
5.712746500E0,1.059796143E-1,-1.139415573E1,-2.725831604E-1,5.717774500E0,1.882067025E-1,-3.981783986E-1,7.850674391E-1
5.722802500E0,1.445993042E-1,-1.116827545E1,1.119671631E-1,5.727830500E0,2.595794201E-1,-3.867587447E-1,5.518493652E-1
5.732858500E0,2.710862732E-1,-1.113115265E1,1.195563812E0,5.737886500E0,1.817058325E-1,-2.485358417E-1,3.599124253E-1
5.742914500E0,8.108638000E-1,-1.171927963E1,1.737137604E0,5.747942500E0,8.134621382E-2,-2.110974044E-1,2.576483786E-1
5.752969500E0,1.511407013E0,-1.291229874E1,1.730551300E0,5.757997500E0,1.089578196E-1,-2.273359150E-1,1.661333442E-1
5.763025500E0,1.932780762E0,-1.373438919E1,1.899699554E0,5.768053500E0,2.837461233E-1,8.467024192E-3,1.768555678E-2
5.773081500E0,1.770518188E0,-1.366208954E1,2.112706604E0,5.778109500E0,4.865595102E-1,5.479158759E-1,-1.646327674E-1
5.783137500E0,6.497987366E-1,-1.328472427E1,1.536554718E0,5.788164500E0,5.726709366E-1,1.169246316E0,-3.216183782E-1
5.793192500E0,-7.357200623E-1,-1.319071976E1,-4.706213379E-1,5.798220500E0,2.922062278E-1,1.452259064E0,-3.678493798E-1
5.803248500E0,-1.200802917E0,-1.363858841E1,-2.758463745E0,5.808276500E0,-5.093360543E-1,1.310592175E0,-3.620037436E-1
5.813304500E0,-8.614585876E-1,-1.379965347E1,-1.600771179E0,5.818331500E0,-1.115327239E0,9.041371346E-1,-4.158486724E-1
5.823358500E0,-1.114432526E0,-1.362406860E1,7.155120850E-1,5.828386500E0,-1.314560771E0,5.867253542E-1,-5.703082681E-1
5.833414500E0,-9.141490173E-1,-1.273985733E1,1.112785950E0,5.838442500E0,-1.668969035E0,6.583492756E-1,-7.730293870E-1
5.843470500E0,-6.167175293E-2,-1.104163879E1,1.619033203E0,5.848498500E0,-2.155976295E0,1.033081770E0,-1.019521952E0
5.853526500E0,1.393601990E-1,-9.002429352E0,2.499801636E0,5.858553500E0,-2.445929527E0,1.162137866E0,-1.339506507E0
5.863581500E0,-2.706372070E-1,-7.691006470E0,2.286195831E0,5.868609500E0,-2.440090656E0,1.236861348E0,-1.688397169E0
5.873637500E0,-1.098715210E0,-7.349865875E0,1.401385803E0,5.878665500E0,-2.274704933E0,1.179275155E0,-1.998881698E0
5.883693500E0,-2.494412842E0,-7.852221222E0,-4.544549561E-1,5.888721500E0,-2.200676203E0,9.881449342E-1,-2.150331736E0
5.893748500E0,-3.924987946E0,-8.958869934E0,-1.302142181E0,5.898776500E0,-2.251952648E0,8.274601698E-1,-2.112578392E0
5.903804500E0,-5.616470490E0,-1.070828201E1,-1.567540283E0,5.908832500E0,-2.303497791E0,7.588898540E-1,-1.954187632E0
5.913860500E0,-7.353757782E0,-1.332139801E1,-1.971849518E0,5.918888500E0,-2.150367737E0,6.788712144E-1,-1.767896533E0
5.923916500E0,-8.512947235E0,-1.585802307E1,-1.610650635E0,5.928943500E0,-1.844201803E0,7.221742272E-1,-1.553039193E0
5.933971500E0,-8.945697327E0,-1.751657410E1,8.167016602E-1,5.938999500E0,-1.628685594E0,1.198304296E0,-1.214840293E0
5.944027500E0,-9.376950531E0,-1.819466400E1,3.470233612E0,5.949055500E0,-1.611453891E0,1.587863684E0,-9.167343974E-1
5.954083500E0,-9.449549561E0,-1.733515137E1,1.416654053E0,5.959111500E0,-1.715388656E0,1.368084669E0,-7.997111082E-1
5.964138500E0,-8.364755402E0,-1.487726257E1,-3.016976166E0,5.969166500E0,-1.699176669E0,7.815106511E-1,-8.217109442E-1
5.974194500E0,-6.890620880E0,-1.238778946E1,-5.145998840E0,5.979222500E0,-1.650027514E0,6.768689752E-1,-7.987722158E-1
5.984250500E0,-5.953719177E0,-1.149699188E1,-3.455713806E0,5.989278500E0,-1.405559421E0,1.178692102E0,-7.661991119E-1
5.994306500E0,-5.105582886E0,-1.058239380E1,-8.681945801E-1,5.999334500E0,-9.442700148E-1,1.680838227E0,-9.030042291E-1
6.004361500E0,-3.896696777E0,-9.417665863E0,-8.098159790E-2,6.009389500E0,-3.156262636E-1,1.347359300E0,-1.053183317E0
6.014417500E0,-1.832339630E0,-8.409512329E0,-9.969268799E-1,6.019445500E0,-1.081862673E-1,7.349381447E-1,-1.250329256E0
6.024473500E0,4.652325439E-1,-8.570876770E0,-2.165995789E-1,6.029501500E0,-3.075704873E-1,8.387364149E-1,-1.880348444E0
6.034529500E0,3.032543793E0,-7.514822845E0,2.156715088E0,6.039556500E0,-9.228807688E-1,9.031825066E-1,-2.510079145E0
6.044584500E0,3.588637390E0,-9.640402679E0,5.309458923E-1,6.049612500E0,-1.479019165E0,1.059796214E-1,-2.321759939E0
6.054640500E0,2.134411469E0,-1.108774292E1,-2.935844879E0,6.059668500E0,-1.772386193E0,-1.333053350E0,-1.867461085E0
6.064696500E0,1.548380127E0,-9.125772858E0,-4.416416016E0,6.069724500E0,-1.933484197E0,-2.352405071E0,-1.580821037E0
6.074751500E0,-1.321751404E-1,-6.907386017E0,-2.714455261E0,6.079779500E0,-1.960842848E0,-2.485595465E0,-1.576214910E0
6.084807500E0,-1.820214844E0,-5.578299866E0,-9.026229858E-2,6.089835500E0,-1.946095109E0,-2.524212599E0,-1.550736904E0
6.094863500E0,-2.830464020E0,-5.191354523E0,1.345701599E-1,6.099891500E0,-1.907229424E0,-2.651146173E0,-1.430445433E0
6.104919500E0,-3.241209869E0,-4.693489838E0,-4.640350342E-2,6.109946500E0,-1.840033174E0,-2.867090940E0,-1.371345043E0
6.114974500E0,-3.313659210E0,-3.854634247E0,2.167492676E-1,6.120002500E0,-1.706867933E0,-2.929151297E0,-1.277801633E0
6.125030500E0,-3.174598389E0,-3.361709290E0,9.376501465E-1,6.130058500E0,-1.419247508E0,-2.822812557E0,-1.108184338E0
6.135086500E0,-2.731220398E0,-2.918780365E0,8.298742676E-1,6.140114500E0,-1.115230083E0,-2.782172680E0,-8.654569983E-1
6.145141500E0,-2.360591125E0,-2.494113464E0,1.871109009E-1,6.150169500E0,-8.333216906E-1,-2.643663168E0,-6.339545250E-1
6.155197500E0,-1.857337646E0,-2.306553497E0,2.121089172E-1,6.160225500E0,-5.536816120E-1,-2.378339529E0,-4.159605801E-1
6.165253500E0,-1.602866821E0,-2.239792328E0,1.103205872E-1,6.170281500E0,-2.766103148E-1,-2.066318512E0,-1.927013844E-1
6.175309500E0,-1.779948578E0,-2.298021240E0,1.595681763E-1,6.180336500E0,4.596206546E-2,-1.724451780E0,2.914586663E-2
6.185364500E0,-1.925296326E0,-2.357597351E0,1.908531189E-1,6.190392500E0,3.671155870E-1,-1.488907695E0,2.432216704E-1
6.195420500E0,-2.100432129E0,-2.461481323E0,-3.305126953E-1,6.200448500E0,6.401011348E-1,-1.463677168E0,4.595690966E-1
6.205476500E0,-2.199226685E0,-2.822231140E0,-1.126707001E0,6.210504500E0,8.506189585E-1,-1.589847565E0,6.777680516E-1
6.215532500E0,-1.869612122E0,-3.177891541E0,-1.600771179E0,6.220559500E0,9.895367622E-1,-1.778555632E0,8.650870919E-1
6.225587500E0,-1.087937622E0,-3.435206451E0,-1.878294067E0,6.230615500E0,1.075573444E0,-1.980343103E0,9.901989102E-1
6.235643500E0,-4.893324280E-1,-4.285438385E0,-2.012564850E0,6.240671500E0,1.226997852E0,-1.973862886E0,1.116978526E0
6.245699500E0,-8.060737610E-1,-5.142256622E0,-2.264341278E0,6.250727500E0,1.485442162E0,-1.904993773E0,1.129241824E0
6.255754500E0,-1.086141357E0,-5.759123840E0,-2.931054840E0,6.260782500E0,1.577566147E0,-1.788438082E0,1.221352577E0
6.265810500E0,-1.767823792E0,-7.996072083E0,-5.284610596E0,6.270838500E0,1.176780939E0,-1.590808272E0,1.369712830E0
6.275866500E0,-2.304158478E0,-1.121512802E1,-9.845775604E0,6.280894500E0,6.173795089E-2,-1.413980603E0,1.422207117E0
6.285922500E0,-1.886976013E0,-1.679163162E1,-1.425889847E1,6.290949500E0,-4.738253355E-1,-1.562094450E0,1.026538849E0
6.295977500E0,-5.215155029E-1,-2.497167114E1,-1.006686584E1,6.301005500E0,-1.883571386E0,-1.270722985E0,-3.196613789E-1
6.306033500E0,2.877615967E0,-3.216750732E1,-1.060828995E1,6.311061500E0,-2.719041824E0,-2.263596773E0,-2.154533625E0
6.316089500E0,6.206842804E0,-3.381812485E1,-1.727258148E1,6.321117500E0,-2.302036524E0,-2.475503206E0,-2.908704281E0
6.326144500E0,4.882846069E0,-2.473261826E1,-1.267249741E1,6.331172500E0,-1.647649407E0,-2.159173727E0,-2.999732018E0
6.336200500E0,5.853876801E0,-1.420366333E1,-7.805218964E0,6.341228500E0,-1.284216881E0,-1.853055000E0,-2.501574516E0
6.346256500E0,5.755531311E0,-8.416398010E0,-6.249354401E0,6.351284500E0,-1.117262006E0,-1.294794679E0,-1.651156664E0
6.356312500E0,2.948119354E0,-2.544109497E0,-4.618495789E0,6.361339500E0,-9.544972181E-1,-8.486894369E-1,-9.509098530E-1
6.366367500E0,1.197509766E-2,2.164498901E0,-5.526058502E0,6.371395500E0,-6.563731432E-1,-4.607166648E-1,-5.662176013E-1
6.376423500E0,-3.733236694E-1,2.246678009E0,-7.706125031E0,6.381451500E0,-3.427554667E-1,-4.335799813E-1,-1.516258568E-1
6.386479500E0,-8.240364075E-1,9.910890198E-1,-9.605076141E0,6.391507500E0,6.415930390E-2,-5.802700520E-1,3.758161366E-1
6.396534500E0,-2.215243378E0,-2.299667816E0,-8.324339447E0,6.401562500E0,3.907324970E-1,-1.715804338E-1,9.715657830E-1
6.406590500E0,-4.474944305E0,-8.009394379E0,-3.743565216E0,6.411618500E0,2.419422418E-1,2.838605940E-1,1.510987759E0
6.416646500E0,-8.497379608E0,-1.670466248E1,-3.375480652E0,6.421674500E0,1.342470050E-1,1.262622237E0,1.980263114E0
6.426702500E0,-1.333127747E1,-2.465298386E1,4.613705750E0,6.431729500E0,-1.160033122E-1,1.984863043E0,1.995990157E0
6.436757500E0,-1.743813721E1,-2.753598862E1,8.508606262E0,6.441785500E0,-4.088119790E-2,6.492788792E-1,1.014600158E0
6.446813500E0,-1.711286362E1,-1.783002228E1,-1.079255676E-1,6.451841500E0,5.767753720E-1,-2.295607924E-1,-3.189356923E-1
6.456869500E0,-6.807992706E0,-5.037923584E0,2.094294891E0,6.461897500E0,9.066946507E-1,9.554954767E-1,-4.582203031E-1
6.466924500E0,-7.358697510E-1,-3.702251129E0,7.351512451E0,6.471952500E0,1.300956249E0,1.921670914E0,-4.186569154E-1
6.476980500E0,-9.385482788E-1,-4.663701782E0,7.532336426E0,6.482008500E0,1.628773332E0,2.215827703E0,-1.511192173E-1
6.487036500E0,-2.753973083E0,-5.690566406E0,6.569538574E0,6.492064500E0,1.471488357E0,1.793924809E0,3.408066034E-1
6.497092500E0,-4.277355194E0,-6.717730408E0,1.809886322E0,6.502119500E0,1.284440875E0,1.252052784E0,7.668885589E-1
6.507147500E0,-4.666695557E0,-6.779851227E0,-5.761518860E-1,6.512175500E0,1.229389548E0,9.552360177E-1,1.072554827E0
6.517203500E0,-4.460873566E0,-6.429429932E0,1.125359802E0,6.522231500E0,1.445715427E0,1.321187258E0,1.325128198E0
6.527259500E0,-4.179758148E0,-7.306007080E0,3.989204407E0,6.532287500E0,1.871258497E0,2.095503807E0,1.541057825E0
6.537314500E0,-3.781885529E0,-8.576714630E0,5.154980164E0,6.542342500E0,2.273244381E0,2.820693731E0,1.784783959E0
6.547370500E0,-3.673361206E0,-1.012644196E1,4.654271393E0,6.552398500E0,2.475102425E0,3.190418243E0,1.914064765E0
6.557426500E0,-3.727997589E0,-1.079450272E1,3.172951813E0,6.562454500E0,2.433085442E0,2.886022568E0,2.017149925E0
6.567482500E0,-3.648812256E0,-1.074705139E1,9.271719360E-1,6.572509500E0,2.206844091E0,1.912266016E0,2.167834520E0
6.577537500E0,-3.757935333E0,-1.076875626E1,-8.427474976E-1,6.582565500E0,1.949582458E0,9.021703005E-1,2.170437574E0
6.587593500E0,-3.555406494E0,-1.111154343E1,-6.480024719E-1,6.592621500E0,1.834626079E0,1.689639986E-1,1.943398595E0
6.597649500E0,-3.194806366E0,-1.147962799E1,-3.553610229E-1,6.602677500E0,1.664114237E0,-1.096685529E0,1.508481383E0
6.607704500E0,-2.115101624E0,-1.173080566E1,-2.699935455E0,6.612732500E0,1.448086858E0,-2.722496986E0,9.364150167E-1
6.617760500E0,2.647993469E-1,-1.045875092E1,-4.753515015E0,6.622788500E0,1.642759323E0,-3.316493750E0,1.473999768E-1
6.627816500E0,3.777095490E0,-7.624095612E0,-3.556903381E0,6.632844500E0,1.814824343E0,-1.422098041E0,-3.777279556E-1
6.637872500E0,4.907095642E0,-7.490273895E0,1.743723907E0,6.642899500E0,1.623111486E0,8.107827902E-1,-1.398919374E-1
6.647927500E0,3.020419006E0,-9.015302582E0,3.063529358E0,6.652955500E0,1.323053360E0,1.928346395E0,3.056822158E-2
6.657983500E0,1.471440125E0,-7.680079193E0,1.339714050E0,6.663011500E0,1.056952238E0,1.912339687E0,2.644363791E-2
6.668039500E0,-1.524878998E0,-6.424190826E0,-8.629554749E-1,6.673067500E0,9.880200624E-1,1.351993084E0,-1.395679712E-1
6.678094500E0,-2.374063110E0,-6.960226135E0,-2.642604675E0,6.683122500E0,1.042813420E0,7.242099643E-1,-1.340570152E-1
6.688150500E0,-2.656226349E0,-8.810827789E0,-1.704355774E0,6.693178500E0,1.110231400E0,5.798605084E-1,-4.115743563E-2
6.698206500E0,-2.772085419E0,-9.288783875E0,9.280700684E-1,6.703234500E0,1.176498055E0,7.645026445E-1,2.707345784E-2
6.708262500E0,-2.341880035E0,-9.082961884E0,2.567760315E0,6.713289500E0,1.347862363E0,1.051417232E0,6.574788690E-2
6.718317500E0,-1.958377533E0,-9.007967834E0,2.680026855E0,6.723345500E0,1.612630606E0,1.215123892E0,1.495945603E-1
6.728373500E0,-1.885928192E0,-9.289382629E0,1.314716034E0,6.733401500E0,1.785582185E0,1.047769785E0,2.972114384E-1
6.738429500E0,-1.427581329E0,-9.439670105E0,-8.180488586E-1,6.743457500E0,1.786557198E0,8.146463633E-1,4.495128393E-1
6.748484500E0,-9.421408081E-1,-9.019194489E0,-1.266965332E0,6.753512500E0,1.660610676E0,7.754440904E-1,5.857449770E-1
6.758540500E0,-6.439608765E-1,-8.768166504E0,-1.003213806E0,6.763568500E0,1.461986661E0,6.528249383E-1,6.837857366E-1
6.768596500E0,-4.421804810E-1,-8.815019073E0,-1.522933044E0,6.773624500E0,1.285840392E0,4.048156440E-1,7.640731335E-1
6.778652500E0,-3.799099731E-1,-9.034612427E0,-1.699565735E0,6.783679500E0,1.194213152E0,1.512926966E-1,8.095315099E-1
6.788707500E0,-5.381309509E-1,-9.190139008E0,-1.415007477E0,6.793735500E0,1.171803236E0,1.341818366E-2,8.260399103E-1
6.798763500E0,-7.421566772E-1,-9.223070526E0,-9.580078125E-1,6.803791500E0,1.174672008E0,-1.505486667E-3,8.491219878E-1
6.808819500E0,-8.562194824E-1,-9.170829163E0,-4.824467468E-1,6.813847500E0,1.191653371E0,2.310904488E-2,8.693686128E-1
6.818875375E0,-9.755213928E-1,-8.996591492E0,-1.661544800E-1,6.823903375E0,1.213470340E0,1.774308272E-2,8.728895783E-1
6.828931375E0,-1.215921478E0,-8.901389465E0,-1.227447510E-1,6.833959375E0,1.216948986E0,-3.398429230E-2,8.797003627E-1
6.838987375E0,-1.581161957E0,-8.898096313E0,-3.775149536E-1,6.844015375E0,1.151532292E0,-8.831753582E-2,8.990750909E-1
6.849043375E0,-1.813778229E0,-9.163943481E0,-4.596940613E-1,6.854070375E0,9.444753528E-1,-6.359540671E-2,9.185593128E-1
6.859098375E0,-1.941313019E0,-9.725874939E0,7.918533325E-2,6.864126375E0,7.105694413E-1,-2.220323309E-2,9.164431095E-1
6.869154375E0,-1.940414886E0,-1.026909531E1,4.080514526E-1,6.874182375E0,6.136860251E-1,2.183719538E-2,9.025515318E-1
6.879210375E0,-2.063009949E0,-1.076231964E1,5.251080322E-1,6.884238375E0,5.971533060E-1,7.776692510E-2,8.280850053E-1
6.889265375E0,-2.225422211E0,-1.084120560E1,7.414082336E-1,6.894293375E0,6.708594561E-1,1.200957447E-1,6.745604277E-1
6.899321375E0,-2.367626495E0,-1.080483124E1,6.270460510E-1,6.904349375E0,7.317075133E-1,2.089108676E-1,5.169010758E-1
6.909377375E0,-2.534978485E0,-1.131766479E1,6.611750793E-1,6.914405375E0,5.690363050E-1,4.136975706E-1,4.315470159E-1
6.919433375E0,-2.109413452E0,-1.184382065E1,1.443148956E0,6.924460375E0,3.108621240E-1,5.045601726E-1,4.315437376E-1
6.929488375E0,-1.108295288E0,-1.235860016E1,1.648671570E0,6.934516375E0,1.812844127E-1,3.579262793E-1,4.192114472E-1
6.939544375E0,-1.701960754E-1,-1.271096741E1,1.480870514E0,6.944572375E0,2.665490210E-1,1.494215578E-1,3.715859652E-1
6.949600375E0,3.996688843E-1,-1.288146286E1,1.954635315E0,6.954628375E0,5.203986168E-1,1.880336702E-1,2.578783035E-1
6.959655375E0,8.268804932E-1,-1.249796036E1,2.415227509E0,6.964683375E0,8.364782929E-1,4.676636755E-1,1.020170897E-1
6.969711375E0,9.080117798E-1,-1.222672440E1,1.746867371E0,6.974739375E0,9.865229130E-1,8.353231549E-1,-1.581020467E-2
6.979767375E0,5.716612244E-1,-1.268237686E1,4.315525818E-1,6.984795375E0,8.910689950E-1,9.492179751E-1,-5.498734117E-2
6.989823375E0,-1.682501221E-1,-1.305734711E1,-1.521885223E0,6.994850375E0,6.941758990E-1,8.833206892E-1,3.604865633E-3
6.999878375E0,-9.098080444E-1,-1.345896194E1,-2.693498840E0,7.004906375E0,3.702770472E-1,8.725519776E-1,1.330475807E-1
7.009934375E0,-5.400769043E-1,-1.383842285E1,-2.554587708E0,7.014962375E0,-2.856842875E-1,9.317870736E-1,1.390218586E-1
7.019990375E0,6.692582703E-1,-1.376672195E1,2.098635864E-1,7.025018375E0,-7.066566944E-1,8.239013553E-1,-2.731377445E-2
7.030045375E0,1.607207794E0,-1.416025360E1,2.389780426E0,7.035073375E0,-6.291187406E-1,3.128298223E-1,-1.861854494E-1
7.040101375E0,1.957928467E0,-1.471485031E1,3.200344849E-1,7.045129375E0,-7.285414338E-1,1.134363934E-1,-3.815417290E-1
7.050157375E0,1.629511414E0,-1.277967453E1,-1.013991394E0,7.055185375E0,-1.277181387E0,6.189956665E-1,-7.067418694E-1
7.060213375E0,1.303938446E0,-1.020338196E1,-1.047821045E-2,7.065240375E0,-1.773376465E0,9.775909185E-1,-1.121159434E0
7.070268375E0,8.060737610E-1,-8.438252563E0,-1.095721436E-1,7.075296375E0,-2.104706049E0,7.988092303E-1,-1.499966383E0
7.080324375E0,3.671864319E-1,-7.237449646E0,-6.685098267E-1,7.085352375E0,-2.149031878E0,1.874062717E-1,-1.810307622E0
7.090380375E0,-4.834945679E-2,-6.407425690E0,-1.095871124E0,7.095408375E0,-2.002663851E0,-5.379996300E-1,-2.003212929E0
7.100435375E0,-6.057902527E-1,-6.022725677E0,-6.557862854E-1,7.105463375E0,-1.951077938E0,-8.973037601E-1,-2.192732334E0
7.110491375E0,-1.558409271E0,-6.198160858E0,7.737409973E-1,7.115519375E0,-2.001034021E0,-8.619061112E-1,-2.320992947E0
7.120547375E0,-2.294279022E0,-7.329059143E0,1.900148621E0,7.125575375E0,-2.063720703E0,-5.807631612E-1,-2.299102068E0
7.130603375E0,-3.254532166E0,-9.854008484E0,2.215842133E0,7.135630375E0,-2.182356834E0,-7.188925147E-2,-2.065143108E0
7.140658375E0,-4.677922211E0,-1.341525284E1,1.801653442E0,7.145686375E0,-2.233011961E0,3.583385050E-1,-1.726363420E0
7.150714375E0,-6.343358917E0,-1.678699127E1,4.510121155E-1,7.155742375E0,-2.143786669E0,3.699645400E-1,-1.385447383E0
7.160770375E0,-8.397237854E0,-1.903202271E1,-1.208287354E0,7.165798375E0,-2.053615093E0,2.391238660E-1,-9.788347483E-1
7.170825375E0,-9.482630768E0,-1.960458206E1,-8.500822449E-1,7.175853375E0,-2.099647284E0,2.889119387E-1,-6.257155538E-1
7.180881375E0,-9.411378937E0,-1.790127411E1,1.028361511E-1,7.185909375E0,-2.153217554E0,3.771529198E-1,-5.279178619E-1
7.190937375E0,-8.933572540E0,-1.515508484E1,-6.182144165E-1,7.195965375E0,-2.007600546E0,6.026493907E-1,-5.410349965E-1
7.200993375E0,-8.238567810E0,-1.318802536E1,-3.897894287E-1,7.206020375E0,-1.580254555E0,1.343667746E0,-7.354813814E-1
7.211048375E0,-7.211852875E0,-1.171853119E1,6.502478027E-1,7.216076375E0,-1.265634894E0,1.845789433E0,-9.562640786E-1
7.221104375E0,-6.589596863E0,-1.064421524E1,-8.174501038E-1,7.226132375E0,-8.986998200E-1,1.792279243E0,-1.439327121E0
7.231160375E0,-4.991669769E0,-7.939789124E0,-1.415306854E0,7.236188375E0,-7.480746508E-1,1.680043817E0,-2.054785967E0
7.241215375E0,-3.077300720E0,-7.743397522E0,-8.202941895E-2,7.246243375E0,-1.006475091E0,1.735989332E0,-2.237051964E0
7.251271375E0,-1.473685455E0,-9.764045563E0,1.001267853E0,7.256299375E0,-1.369911671E0,1.467515588E0,-2.190642118E0
7.261327375E0,-1.243164825E0,-1.032073792E1,-7.044351196E-1,7.266355375E0,-1.620404840E0,5.296660066E-1,-2.064130545E0
7.271383375E0,-1.550176392E0,-9.703122253E0,-3.700754242E0,7.276410375E0,-1.887660027E0,-8.347968459E-1,-1.831515789E0
7.281438375E0,-1.864822083E0,-9.104367371E0,-4.358935547E0,7.286466375E0,-2.106101274E0,-1.815798402E0,-1.601354599E0
7.291494375E0,-1.328038330E0,-7.985743561E0,-1.932780762E0,7.296522375E0,-2.235887527E0,-2.414906025E0,-1.551544189E0
7.301550375E0,-2.345622253E-1,-7.126530304E0,-5.066963196E-1,7.306577375E0,-2.228413582E0,-2.511668205E0,-1.578915119E0
7.311605375E0,-2.724334717E-2,-6.855144653E0,-8.966354370E-2,7.316633375E0,-2.276435614E0,-2.554052353E0,-1.577498555E0
7.321661375E0,-4.174818420E-1,-6.535708923E0,-6.462062073E-1,7.326689375E0,-2.214075804E0,-2.862677097E0,-1.517899275E0
7.331717375E0,-4.571493530E-1,-6.706803131E0,-9.008267212E-1,7.336745375E0,-2.214042425E0,-3.178559303E0,-1.450903773E0
7.341772375E0,-1.166075134E0,-6.365213470E0,-2.589614868E-1,7.346800375E0,-2.146700382E0,-3.438082933E0,-1.321856022E0
7.351828375E0,-1.642684021E0,-5.127587128E0,3.408412170E-1,7.356856375E0,-2.020575523E0,-3.399011135E0,-1.117049575E0
7.361884375E0,-1.564995575E0,-3.710484009E0,1.200802917E0,7.366912375E0,-1.782948136E0,-3.145271778E0,-9.195024967E-1
7.371940375E0,-1.796863403E0,-2.445764008E0,1.302291870E0,7.376967375E0,-1.371420026E0,-2.725269079E0,-7.098177075E-1
7.381995375E0,-2.028132477E0,-1.662891998E0,1.138682098E0,7.387023375E0,-8.753414154E-1,-2.315994024E0,-4.720357060E-1
7.392051375E0,-2.143542480E0,-1.107995911E0,4.746629333E-1,7.397079375E0,-3.885525763E-1,-2.030889511E0,-1.977697760E-1
7.402107375E0,-2.459385681E0,-7.177574158E-1,-9.819580078E-2,7.407135375E0,9.240192920E-2,-1.795759678E0,5.982099846E-2
7.412162375E0,-2.734363861E0,-5.951623535E-1,-2.719844055E-1,7.417190375E0,5.072885752E-1,-1.694212079E0,2.484926432E-1
7.422218375E0,-2.605332184E0,-6.140231323E-1,-7.295828247E-1,7.427246375E0,8.473311067E-1,-1.666868329E0,4.096932709E-1
7.432274375E0,-2.267484741E0,-1.052461395E0,-1.063388672E0,7.437302375E0,1.137468934E0,-1.711816072E0,5.697671175E-1
7.442330375E0,-1.854792938E0,-1.509760437E0,-1.621727600E0,7.447357375E0,1.380081058E0,-1.830066800E0,7.251768112E-1
7.452385375E0,-1.153800659E0,-1.637893982E0,-2.309397583E0,7.457413375E0,1.551674128E0,-1.981757879E0,8.249872923E-1
7.462441375E0,-4.652325439E-1,-2.103725281E0,-2.766846313E0,7.467469375E0,1.779265523E0,-1.900453568E0,9.433751106E-1
7.472497375E0,-2.694396973E-1,-2.910248108E0,-2.481090546E0,7.477525375E0,2.064923763E0,-1.737514138E0,1.054353356E0
7.482552375E0,-3.620970154E-1,-3.196902008E0,-3.266656952E0,7.487580375E0,2.325767040E0,-1.612151504E0,1.084716558E0
7.492608375E0,-1.081201630E0,-4.195625153E0,-4.591851196E0,7.497636375E0,2.405182362E0,-1.414502859E0,1.156016827E0
7.502664375E0,-2.128124542E0,-6.901398468E0,-6.570287018E0,7.507692375E0,2.028721333E0,-1.175219655E0,1.341026306E0
7.512720375E0,-3.005599823E0,-1.116992203E1,-1.053584061E1,7.517747375E0,9.440213442E-1,-1.093087316E0,1.570439577E0
7.522775375E0,-3.642375641E0,-1.794588135E1,-1.432955154E1,7.527803375E0,2.913269699E-1,-1.124578357E0,1.210855603E0
7.532831375E0,-3.291355591E0,-2.643233368E1,-9.631720734E0,7.537859375E0,-1.138967276E0,-1.929971576E-1,3.015192151E-1
7.542887375E0,-3.370989990E0,-3.718207947E1,-9.366322632E0,7.547915375E0,-2.476711273E0,-1.020075202E0,-1.433318019E0
7.552942375E0,-1.026415558E0,-3.617572220E1,-1.945459396E1,7.557970375E0,-2.564819574E0,-1.714232445E0,-2.579964876E0
7.562998375E0,1.564696198E0,-2.402713531E1,-1.549323166E1,7.568026375E0,-1.961782932E0,-1.824815512E0,-2.918971062E0
7.573054375E0,4.230053558E0,-1.413780029E1,-8.732091522E0,7.578082375E0,-1.610822201E0,-1.658712983E0,-2.476056337E0
7.583110375E0,6.776109009E0,-7.723339233E0,-5.007087708E0,7.588137375E0,-1.622785568E0,-1.393433928E0,-1.460363507E0
7.593165375E0,7.209757233E0,-1.177301788E0,-4.296365662E0,7.598193375E0,-1.349988461E0,-8.893077970E-1,-5.744209886E-1
7.603221375E0,4.352648621E0,3.869902496E0,-6.725813599E0,7.608249375E0,-5.695164800E-1,-2.957631052E-1,-6.525160372E-2
7.613277375E0,-1.139131165E-1,3.628903656E0,-7.802674255E0,7.618305375E0,2.071406990E-1,4.193784893E-1,4.771592021E-1
7.623332375E0,-3.402125244E0,-2.257156219E0,-4.606371002E0,7.628360375E0,2.726359069E-1,3.271329105E-1,8.913497329E-1
7.633388375E0,-8.235274658E0,-9.234895935E0,-6.237678680E0,7.638416375E0,3.107364178E-1,9.653751552E-2,1.194158077E0
7.643444375E0,-1.475496689E1,-1.854972565E1,-4.655319214E0,7.648472375E0,7.726064324E-2,1.145933867E0,1.502103925E0
7.653499375E0,-1.836096817E1,-2.819162521E1,6.424041138E0,7.658527375E0,-1.512921154E-1,2.096590042E0,1.198726177E0
7.663555375E0,-1.661155609E1,-2.393672333E1,1.142648849E1,7.668583375E0,1.366565228E-1,4.811766744E-1,-1.163730621E-1
7.673611375E0,-1.115121094E1,-9.251212006E0,3.551364899E0,7.678639375E0,6.966543198E-1,4.098624736E-2,-6.471232176E-1
7.683667375E0,-3.564687195E0,-3.840862885E0,4.300706635E0,7.688694375E0,9.988012314E-1,1.254041195E0,-4.911737144E-1
7.693722375E0,-9.964778137E-1,-3.825594635E0,7.119195557E0,7.698750375E0,1.286828518E0,2.058530807E0,-2.112496644E-1
7.703778375E0,-2.508184204E0,-4.232448578E0,7.143894196E0,7.708806375E0,1.287322044E0,1.838158727E0,2.273023129E-1
7.713834375E0,-5.074447632E0,-5.618715820E0,3.613336029E0,7.718862375E0,1.237788558E0,1.305348873E0,6.122801304E-1
7.723889375E0,-5.982010345E0,-6.244714050E0,5.269042969E-1,7.728917375E0,1.354477525E0,1.240935087E0,1.023129463E0
7.733945375E0,-6.024521942E0,-6.734046478E0,2.494263153E0,7.738973375E0,1.757474303E0,1.766805291E0,1.410472393E0
7.744001375E0,-6.040388947E0,-7.597750397E0,5.096601562E0,7.749029375E0,2.308728456E0,2.463428020E0,1.660362601E0
7.754057375E0,-5.572012939E0,-8.049960022E0,5.144052887E0,7.759084375E0,2.823759317E0,3.205996275E0,1.814123988E0
7.764112375E0,-5.264701996E0,-8.870703278E0,4.507127380E0,7.769140375E0,3.142631769E0,3.723549604E0,1.921626925E0
7.774168375E0,-5.020260315E0,-9.946366425E0,3.174448700E0,7.779196375E0,3.174915552E0,3.563740015E0,1.959102392E0
7.784224375E0,-4.766537933E0,-1.001417542E1,1.014590149E0,7.789252375E0,2.918285370E0,2.784683704E0,2.042415857E0
7.794279375E0,-4.353247375E0,-1.008018814E1,-1.347198486E-3,7.799307375E0,2.552605867E0,1.901688814E0,2.094957352E0
7.804335375E0,-3.683689728E0,-1.066292633E1,2.972817993E-1,7.809363375E0,2.105019569E0,9.938512444E-1,2.128032207E0
7.814391375E0,-3.071911926E0,-1.123383911E1,3.315605164E-1,7.819419292E0,1.661659241E0,5.715254322E-2,1.939592242E0
7.824447292E0,-2.681374054E0,-1.131092880E1,-4.715194702E-2,7.829474292E0,1.452672720E0,-9.174749255E-1,1.502354383E0
7.834502292E0,-1.587897949E0,-1.175116333E1,-1.061592407E0,7.839530292E0,1.611467481E0,-1.460291028E0,9.351010323E-1
7.844558292E0,5.977070618E-1,-1.123593475E1,-1.286275177E0,7.849586292E0,1.897758842E0,-5.208771825E-1,3.472616374E-1
7.854614292E0,2.749183044E0,-9.817634125E0,1.365909576E0,7.859642292E0,1.831672192E0,9.666039944E-1,-1.587988883E-1
7.864669292E0,3.243305511E0,-9.000333710E0,2.349065094E0,7.869697292E0,1.632069468E0,1.711941004E0,-4.496282935E-1
7.874725292E0,2.813549194E0,-8.873397675E0,9.506730652E-1,7.879753292E0,1.494113445E0,1.672597528E0,-4.752396643E-1
7.884781292E0,2.302212524E0,-9.173673248E0,-2.408491516E-1,7.889809292E0,1.398197532E0,1.300822258E0,-2.335871607E-1
7.894836292E0,1.877994690E0,-9.861043854E0,-9.833052063E-1,7.899864292E0,1.279552579E0,8.262986541E-1,5.728675053E-2
7.904892292E0,6.803352356E-1,-9.598789215E0,-1.380429382E0,7.909920292E0,1.109121799E0,6.185910702E-1,-2.608068753E-3
7.914948292E0,-1.150058441E0,-8.555907898E0,-6.959028625E-1,7.919976292E0,9.722082019E-1,6.287166476E-1,-6.542218477E-2
7.925004292E0,-1.710193634E0,-8.723858643E0,-5.568420410E-2,7.930031292E0,9.587745667E-1,7.245647907E-1,-7.559990883E-2
7.935059292E0,-1.798360291E0,-8.897796936E0,3.080593872E-1,7.940087292E0,1.136515737E0,9.117855430E-1,-1.043503284E-1
7.945115292E0,-1.499880981E0,-8.997789001E0,1.034947815E0,7.950143292E0,1.364676237E0,1.195824623E0,-8.893522620E-2
7.955171292E0,-1.232387238E0,-9.204359436E0,1.530567169E0,7.960199292E0,1.477324843E0,1.260388970E0,-2.401667647E-2
7.965226292E0,-1.107995911E0,-8.672665100E0,8.277786255E-1,7.970254292E0,1.560803771E0,1.208515406E0,7.299463451E-2
7.975282292E0,-9.868977356E-1,-7.882458344E0,4.623884583E-1,7.980310292E0,1.655160904E0,1.001661062E0,1.823086143E-1
7.985338292E0,-9.925859070E-1,-7.567363586E0,-4.562512207E-1,7.990366292E0,1.726750851E0,5.219468474E-1,3.141032755E-1
7.995394292E0,-1.154399414E0,-7.658524017E0,-1.734742584E0,8.000421292E0,1.854484081E0,2.215444148E-1,4.646832049E-1
8.005449292E0,-1.482217712E0,-8.092172241E0,-1.543440399E0,8.010477292E0,1.853759170E0,2.104640454E-1,6.248170733E-1
8.015505292E0,-1.845811615E0,-8.888366547E0,-1.625769196E0,8.020533292E0,1.616718173E0,3.447129428E-1,7.611767650E-1
8.025561292E0,-2.086810455E0,-9.251062317E0,-2.653831329E0,8.030589292E0,1.291517019E0,3.184592724E-1,8.550159931E-1
8.035616292E0,-2.114203491E0,-9.218130798E0,-3.484753418E0,8.040644292E0,1.039467454E0,6.250125170E-2,9.085332751E-1
8.045672292E0,-1.988015900E0,-9.098080444E0,-2.968477020E0,8.050700292E0,9.128409624E-1,-1.641133428E-1,9.332870841E-1
8.055728292E0,-1.848955078E0,-8.958570557E0,-1.253493347E0,8.060756292E0,8.633964658E-1,-1.984502673E-1,9.627802372E-1
8.065784292E0,-1.848805389E0,-9.248367920E0,3.085084534E-1,8.070811292E0,7.830507755E-1,-1.448323876E-1,1.019556999E0
8.075839292E0,-1.855391693E0,-1.004351440E1,7.427554321E-1,8.080867292E0,6.401298642E-1,-6.230448931E-2,1.085701108E0
8.085895292E0,-1.592687988E0,-1.068253555E1,6.158193970E-1,8.090923292E0,4.473606348E-1,1.430584490E-2,1.101428628E0
8.095951292E0,-1.192270660E0,-1.068448151E1,2.766247559E-1,8.100978292E0,3.264019787E-1,-8.429502696E-2,9.953191876E-1
8.106006292E0,-1.049916687E0,-1.031250504E1,-5.812413025E-1,8.111034292E0,3.392064571E-1,-2.534213364E-1,7.620180845E-1
8.116062292E0,-1.225052490E0,-1.021580612E1,-6.712042236E-1,8.121090292E0,3.195478022E-1,-1.771761179E-1,4.529047608E-1
8.126118292E0,-1.415157166E0,-1.051114197E1,5.840853882E-1,8.131146292E0,2.132554203E-1,2.201984078E-2,2.544218898E-1
8.136173292E0,-1.046174469E0,-1.144579834E1,1.606159973E0,8.141201292E0,1.287258863E-1,1.169508770E-1,2.141098827E-1
8.146229292E0,-2.398013306E-1,-1.266276764E1,2.164947968E0,8.151257292E0,1.959702820E-1,1.372620314E-1,1.769254059E-1
8.156285292E0,4.317022705E-1,-1.346524887E1,2.387684784E0,8.161313292E0,4.391459227E-1,2.226352394E-1,5.652388930E-2
8.166341292E0,8.113128662E-1,-1.344743591E1,2.275418243E0,8.171368292E0,7.677159309E-1,5.374139547E-1,-1.479554176E-1
8.176396292E0,8.782237244E-1,-1.274105484E1,1.898502045E0,8.181424292E0,1.002166271E0,1.148353815E0,-3.719645441E-1
8.186452292E0,5.758525085E-1,-1.221624619E1,9.596543884E-1,8.191480292E0,9.701529741E-1,1.781295419E0,-5.113826394E-1
8.196508292E0,-2.272274780E-1,-1.174966644E1,-8.753796387E-1,8.201536292E0,6.989379525E-1,1.971468568E0,-5.048485994E-1
8.206563292E0,-1.109343109E0,-1.200922668E1,-3.348386993E0,8.211591292E0,5.766755715E-2,1.792295933E0,-3.700123429E-1
8.216619292E0,-1.419049072E0,-1.310779221E1,-3.339705048E0,8.221647292E0,-6.818906665E-1,1.463281631E0,-2.107158899E-1
8.226675292E0,-1.301693115E0,-1.456097031E1,-1.617386627E0,8.231703292E0,-9.945231080E-1,7.987216711E-1,-1.553463787E-1
8.236731292E0,-1.727407837E0,-1.566941528E1,-1.901795197E0,8.241758292E0,-1.201784730E0,4.742141366E-1,-1.760244817E-1
8.246786292E0,-1.270408173E0,-1.481574051E1,-8.171507263E-1,8.251814292E0,-1.702964306E0,6.004627943E-1,-3.582911491E-1
8.256842292E0,-6.825805664E-2,-1.200054474E1,1.125060425E0,8.261870292E0,-2.208561897E0,8.114812970E-1,-6.592245698E-1
8.266898292E0,5.141807556E-1,-1.010937744E1,2.389031982E0,8.271925292E0,-2.324087381E0,7.886263132E-1,-1.000439882E0
8.276953292E0,4.326004028E-2,-8.558751984E0,1.746418304E0,8.281981292E0,-2.187986374E0,7.540957332E-1,-1.318897724E0
8.287009292E0,-1.132993927E0,-7.046147461E0,3.528163147E-1,8.292037292E0,-2.102554798E0,8.694595098E-1,-1.586942077E0
8.297065292E0,-2.411485291E0,-6.386618958E0,-3.817062378E-1,8.302093292E0,-2.170447111E0,9.061596990E-1,-1.828109384E0
8.307120292E0,-3.272195435E0,-6.546785889E0,-9.695338440E-1,8.312148292E0,-2.234026909E0,7.181913257E-1,-2.040447474E0
8.317176292E0,-4.185296631E0,-7.789351959E0,-1.286125488E0,8.322204292E0,-2.235471487E0,5.502545238E-1,-2.151959658E0
8.327232292E0,-5.528303833E0,-9.852361908E0,-1.238225098E0,8.332260292E0,-2.122913599E0,4.489428699E-1,-2.200782776E0
8.337288292E0,-6.745572510E0,-1.214664093E1,-1.075064392E0,8.342315292E0,-1.973621488E0,3.591014147E-1,-2.137345076E0
8.347343292E0,-7.806865540E0,-1.412058609E1,-6.559359741E-1,8.352371292E0,-1.878400683E0,4.263443053E-1,-1.877657413E0
8.357399292E0,-8.862919464E0,-1.606070160E1,1.234931946E-1,8.362427292E0,-1.927568555E0,6.339142919E-1,-1.378094435E0
8.367455292E0,-9.675579529E0,-1.738275238E1,7.185058594E-2,8.372483292E0,-2.073897839E0,8.702072501E-1,-8.866180778E-1
8.377510292E0,-9.615704041E0,-1.665406769E1,-1.129700775E0,8.382538292E0,-2.049099207E0,1.015969038E0,-6.869270802E-1
8.387566292E0,-8.886121216E0,-1.415905609E1,-2.292333069E0,8.392594292E0,-1.833400846E0,1.118497849E0,-8.381282687E-1
8.397622292E0,-7.640261993E0,-1.191896439E1,-2.448907471E0,8.402650292E0,-1.538624048E0,1.351732969E0,-1.125967979E0
8.407678292E0,-6.159391479E0,-1.026999344E1,-1.223854980E0,8.412705292E0,-1.194567084E0,1.622068763E0,-1.278894067E0
8.417733292E0,-3.146905975E0,-9.804012451E0,-2.137554932E-1,8.422761292E0,-9.344542623E-1,1.577296972E0,-1.407226205E0
8.427789292E0,-4.737648010E-1,-1.000235001E1,-7.634124756E-2,8.432817292E0,-1.051199675E0,1.716774106E0,-1.373782277E0
8.437845292E0,-2.459385681E-1,-9.756411438E0,6.448590088E-1,8.442873292E0,-1.352349401E0,1.248002887E0,-1.555413008E0
8.447900292E0,1.144819336E0,-9.086255035E0,-1.391656036E0,8.452928292E0,-1.581784248E0,5.947432518E-1,-1.981598735E0
8.457956292E0,2.462678833E0,-9.065747681E0,-2.628384247E0,8.462984292E0,-1.807541251E0,-1.493932605E-1,-2.005218267E0
8.468012292E0,1.461710358E0,-9.418114929E0,-3.330274658E0,8.473040292E0,-1.841295362E0,-1.199595809E0,-1.879023671E0
8.478067292E0,8.813671875E-1,-8.957373047E0,-3.143014069E0,8.483095292E0,-1.862837076E0,-1.741870522E0,-1.726747036E0
8.488123292E0,-1.552272034E-1,-7.934550018E0,-8.416996765E-1,8.493151292E0,-1.942043185E0,-2.072253704E0,-1.649804711E0
8.498179292E0,-5.619314575E-1,-6.827003174E0,-2.839595032E-1,8.503207292E0,-1.971497774E0,-2.326058626E0,-1.697756052E0
8.508235292E0,-7.996371460E-1,-6.419251099E0,1.742376709E-1,8.513262292E0,-1.975450993E0,-2.591898203E0,-1.604882121E0
8.518290292E0,-1.205892334E0,-6.221512299E0,2.984793091E-1,8.523318292E0,-1.917228460E0,-2.822365999E0,-1.489218831E0
8.528346292E0,-1.462907867E0,-5.493426361E0,4.737648010E-1,8.533374292E0,-1.819640756E0,-3.050237179E0,-1.427065253E0
8.538402292E0,-1.915416870E0,-4.643643494E0,8.484356689E-1,8.543430292E0,-1.623600602E0,-3.134918451E0,-1.337761521E0
8.548457292E0,-2.033670959E0,-4.196822662E0,1.027912445E0,8.553485292E0,-1.323055625E0,-2.959639311E0,-1.228339314E0
8.558513292E0,-2.235900421E0,-3.978127441E0,1.040336609E0,8.563541292E0,-1.040053725E0,-2.887929201E0,-1.061690688E0
8.568569292E0,-2.503992920E0,-3.689078522E0,2.884501648E-1,8.573597292E0,-7.000139952E-1,-2.740386963E0,-9.010134935E-1
8.578625292E0,-2.865341492E0,-3.526366882E0,1.492396545E-1,8.583652292E0,-2.917418182E-1,-2.488330603E0,-7.265162468E-1
8.588680292E0,-3.152594147E0,-3.063978424E0,2.619552612E-2,8.593708292E0,1.001505852E-1,-2.286438942E0,-5.362731814E-1
8.598736292E0,-3.187770996E0,-2.652933197E0,-5.281018066E-1,8.603764292E0,4.738517404E-1,-2.122550488E0,-3.293591142E-1
8.608792292E0,-3.188369751E0,-2.450703735E0,-9.057664490E-1,8.613820292E0,7.796556950E-1,-2.051231623E0,-1.165817305E-1
8.618847292E0,-3.035836945E0,-2.371817780E0,-1.379980316E0,8.623875292E0,1.013568997E0,-2.034930229E0,9.841793031E-2
8.628903292E0,-2.475851440E0,-2.480342102E0,-1.921404419E0,8.633931292E0,1.251372099E0,-2.001139402E0,3.121623993E-1
8.638959292E0,-1.663341064E0,-2.724634094E0,-2.295326843E0,8.643987292E0,1.524809003E0,-1.908967733E0,5.452409387E-1
8.649014292E0,-9.006770325E-1,-3.025957489E0,-2.320923615E0,8.654042292E0,1.796404719E0,-1.745490313E0,7.101458311E-1
8.659070292E0,-2.158511353E-1,-2.941982117E0,-2.240690460E0,8.664098292E0,1.969882011E0,-1.504533052E0,9.625921845E-1
8.669126292E0,-3.329077148E-1,-3.855981445E0,-2.223326569E0,8.674154292E0,2.125964642E0,-1.180509448E0,1.067537189E0
8.679182292E0,-2.820135498E-1,-4.260440369E0,-2.513872375E0,8.684209292E0,2.274105310E0,-8.216528296E-1,1.102785230E0
8.689237292E0,-9.089099121E-1,-5.535039825E0,-3.088078308E0,8.694265292E0,2.195367336E0,-5.468863845E-1,1.249751091E0
8.699293292E0,-2.619402924E0,-8.179141388E0,-6.226152649E0,8.704321292E0,1.561374307E0,-5.377019048E-1,1.426631570E0
8.709349292E0,-3.705394592E0,-1.204694824E1,-1.223615479E1,8.714377292E0,4.067166448E-1,-1.089165807E0,1.565476060E0
8.719404292E0,-3.960314484E0,-1.845826584E1,-1.640887756E1,8.724432292E0,-3.463254273E-1,-1.499665499E0,1.289016008E0
8.729460292E0,-3.432811432E0,-2.827964218E1,-1.167093018E1,8.734488292E0,-1.670410275E0,-1.182501912E0,8.142672479E-2
8.739516292E0,9.610015869E-2,-3.687057724E1,-1.032777328E1,8.744544292E0,-2.428761005E0,-1.877824545E0,-1.843155861E0
8.749571292E0,4.032015381E0,-3.176439560E1,-1.585727463E1,8.754599292E0,-2.265013933E0,-2.139088869E0,-2.609937668E0
8.759627292E0,3.275787964E0,-2.044688049E1,-1.271455994E1,8.764655292E0,-1.883524418E0,-2.023442745E0,-2.691510677E0
8.769683292E0,4.646936646E0,-1.225157272E1,-9.354347534E0,8.774711292E0,-1.609734893E0,-1.629387379E0,-2.185226440E0
8.779739292E0,5.617817688E0,-7.438331909E0,-7.572453003E0,8.784766292E0,-1.413152099E0,-1.081055045E0,-1.376261473E0
8.789794292E0,3.608845367E0,-2.324516144E0,-5.580096130E0,8.794822292E0,-1.103900671E0,-6.518463492E-1,-6.250670552E-1
8.799850292E0,-3.879931641E-1,1.246308289E0,-5.799390106E0,8.804878292E0,-3.248945773E-1,3.036825359E-1,4.394538701E-3
8.809906292E0,-2.729873199E0,-9.142987061E-1,-3.520229645E0,8.814934292E0,1.795072556E-1,8.073697090E-1,5.332365632E-1
8.819961000E0,-4.675826569E0,-5.706882477E0,-5.247487793E0,8.824989000E0,4.053829908E-1,5.969735384E-1,9.186934233E-1
8.830017000E0,-8.979526978E0,-1.109298203E1,-6.992558899E0,8.835045000E0,5.344459414E-1,5.602351427E-1,1.259452939E0
8.840073000E0,-1.283311340E1,-1.947719696E1,-3.384162598E0,8.845101000E0,3.143286705E-2,1.592115521E0,1.608139753E0
8.850129000E0,-1.366493362E1,-2.638757675E1,5.409750366E0,8.855156000E0,-5.437667966E-1,2.541503429E0,9.405959249E-1
8.860184000E0,-1.044602737E1,-1.786400162E1,1.017553986E1,8.865212000E0,1.468462497E-1,1.032518029E0,-4.615991116E-1
8.870240000E0,-5.066364441E0,-4.780758362E0,4.549788666E0,8.875268000E0,1.044343472E0,3.770948052E-1,-5.949559808E-1
8.880296000E0,-2.268233185E0,-3.876339111E0,5.385201416E0,8.885323000E0,1.348268509E0,9.902505875E-1,-3.588710129E-1
8.890351000E0,-1.930685120E0,-3.843706970E0,5.501808929E0,8.895379000E0,1.318389893E0,1.605201483E0,-1.036562398E-1
8.900407000E0,-1.867815857E0,-3.570075989E0,4.273313599E0,8.905435000E0,1.066643715E0,1.518712878E0,3.208494782E-1
8.910463000E0,-3.397484894E0,-4.383185120E0,2.291285248E0,8.915491000E0,9.726310372E-1,1.206883311E0,7.241285443E-1
8.920518000E0,-4.742438049E0,-4.933291168E0,1.164278870E0,8.925546000E0,1.080724120E0,1.202819347E0,1.114240289E0
8.930574000E0,-5.470673676E0,-6.476731567E0,2.119741974E0,8.935602000E0,1.391709685E0,1.644482255E0,1.521552920E0
8.940630000E0,-5.868246918E0,-9.366472321E0,4.132306824E0,8.945658000E0,1.761060596E0,2.202244759E0,1.882942080E0
8.950686000E0,-5.818400574E0,-1.198991684E1,4.785847778E0,8.955713000E0,2.114244461E0,2.762672663E0,2.034212351E0
8.960741000E0,-6.110742645E0,-1.246158600E1,4.371359711E0,8.965769000E0,2.259691954E0,2.850747108E0,1.960614920E0
8.970797000E0,-5.938001862E0,-1.178693893E1,2.753524017E0,8.975825000E0,2.127173901E0,2.168888807E0,1.975027323E0
8.980853000E0,-5.191653900E0,-1.155058044E1,6.783892822E-1,8.985881000E0,1.954094529E0,1.299988985E0,2.028824091E0
8.990908000E0,-4.068240051E0,-1.111633347E1,2.727328491E-1,8.995936000E0,1.965917468E0,5.740475655E-1,1.969905496E0
9.000964000E0,-3.003204803E0,-1.039603134E1,3.577560425E-2,9.005992000E0,2.115787506E0,-2.322691977E-1,1.780956388E0
9.011020000E0,-2.099533997E0,-1.014350647E1,-9.380992126E-1,9.016048000E0,2.130401134E0,-1.217748761E0,1.534052253E0
9.021075000E0,-7.749385071E-1,-1.034558624E1,-1.407073975E0,9.026103000E0,2.129148006E0,-1.482719421E0,1.117745042E0
9.031131000E0,7.752378845E-1,-1.009545639E1,-6.298901367E-1,9.036159000E0,2.032251835E0,-1.998713315E-1,6.165956259E-1
9.041187000E0,2.545157318E0,-9.215586090E0,9.761201477E-1,9.046215000E0,1.660409808E0,1.191629529E0,2.187968642E-1
9.051243000E0,2.925815735E0,-8.334518280E0,2.868035889E-1,9.056270000E0,1.298927665E0,1.527026534E0,-5.285047740E-2
9.061298000E0,2.752027130E0,-8.068820801E0,-2.192790070E0,9.066326000E0,1.172103643E0,8.771582246E-1,-1.446890533E-1
9.071354000E0,2.533930664E0,-8.231382751E0,-3.813918915E0,9.076382000E0,1.133136272E0,3.705132287E-3,2.455094084E-2
9.081410000E0,1.686991882E0,-8.970246277E0,-3.120560760E0,9.086438000E0,1.093186259E0,-2.939915359E-1,3.786487877E-2
9.091465000E0,-7.589218140E-2,-8.668922882E0,-1.023870850E0,9.096493000E0,9.894273281E-1,-1.768534631E-1,-3.704504669E-2
9.101521000E0,-8.578660583E-1,-8.299940186E0,3.194357300E-1,9.106549000E0,9.381681085E-1,2.093094140E-1,-1.054326221E-1
9.111577000E0,-1.132844238E0,-8.262667694E0,1.243464203E0,9.116605000E0,1.030800581E0,7.221959829E-1,-1.266664863E-1
9.121633000E0,-1.159039764E0,-8.534352722E0,1.675465851E0,9.126660000E0,1.211063862E0,1.070712924E0,-1.080315337E-1
9.131688000E0,-8.786727905E-1,-8.874295807E0,1.251397705E0,9.136716000E0,1.396321774E0,1.195114493E0,-4.539632425E-2
9.141744000E0,-8.075706482E-1,-8.705746307E0,3.704795837E-1,9.146772000E0,1.498339772E0,1.121697545E0,2.116086520E-2
9.151800000E0,-9.836045837E-1,-8.443192291E0,-3.442840576E-1,9.156827000E0,1.555959582E0,1.018136740E0,1.542416364E-1
9.161855000E0,-1.284179535E0,-8.475674744E0,-7.174580383E-1,9.166883000E0,1.537155628E0,7.684085965E-1,3.475463688E-1
9.171911000E0,-1.603315887E0,-8.753347321E0,-1.961371307E0,9.176939000E0,1.449935913E0,3.749279380E-1,5.102369189E-1
9.181967000E0,-1.621128845E0,-9.142388306E0,-2.972518616E0,9.186995000E0,1.385209084E0,2.378941923E-1,6.810749769E-1
9.192022000E0,-1.314716034E0,-9.533824310E0,-2.366578674E0,9.197050000E0,1.240116596E0,1.268125623E-1,8.367825747E-1
9.202078000E0,-1.199755096E0,-9.528435516E0,-2.381098480E0,9.207106000E0,1.068922162E0,-9.142336994E-2,9.217131734E-1
9.212134000E0,-1.120719452E0,-9.387428741E0,-2.355950775E0,9.217162000E0,9.486430883E-1,-3.278158605E-1,9.496224523E-1
9.222190000E0,-8.806187439E-1,-9.321565704E0,-1.514400787E0,9.227217000E0,9.207049012E-1,-4.785859287E-1,9.302530289E-1
9.232245000E0,-7.481442261E-1,-9.257947998E0,-4.945715332E-1,9.237273000E0,9.715023637E-1,-5.747023821E-1,8.741593361E-1
9.242301000E0,-6.569837952E-1,-9.000782776E0,1.706451416E-2,9.247329000E0,1.059168458E0,-6.729685068E-1,8.004009128E-1
9.252357000E0,-6.352789307E-1,-8.630003815E0,-2.092648315E-1,9.257384000E0,1.121718764E0,-6.630862951E-1,7.425510287E-1
9.262412000E0,-8.788224792E-1,-8.471034393E0,-5.343887329E-1,9.267440000E0,1.101875305E0,-4.233882129E-1,7.048071027E-1
9.272468000E0,-1.257534943E0,-8.806636505E0,-5.655239868E-1,9.277496000E0,8.858562708E-1,-3.366914392E-2,6.753248572E-1
9.282524000E0,-1.611848145E0,-9.438322906E0,-2.062710571E-1,9.287552000E0,5.105979443E-1,2.507157028E-1,6.726177335E-1
9.292579000E0,-1.657203827E0,-1.005788452E1,3.848497009E-1,9.297607000E0,2.490692735E-1,2.481760681E-1,6.574894190E-1
9.302635000E0,-1.530118103E0,-1.053958282E1,6.671626282E-1,9.307663000E0,2.199710310E-1,1.205965430E-1,5.567183495E-1
9.312691000E0,-1.567689972E0,-1.097787140E1,1.526375885E0,9.317719000E0,2.432375550E-1,1.059275046E-1,4.309807122E-1
9.322747000E0,-1.283281403E0,-1.168754562E1,3.002905426E0,9.327774000E0,2.737829387E-1,1.938169263E-2,3.428071737E-1
9.332802000E0,-6.212081909E-1,-1.279823593E1,3.044967957E0,9.337830000E0,3.565692306E-1,-3.079112470E-1,3.067427874E-1
9.342858000E0,4.346960449E-1,-1.417327652E1,1.839973755E0,9.347886000E0,4.744189084E-1,-5.644000173E-1,1.753616035E-1
9.352914000E0,1.668729858E0,-1.472113724E1,1.191821594E0,9.357942000E0,6.468932629E-1,-1.918753237E-1,3.393167630E-3
9.362969000E0,2.197131042E0,-1.437116501E1,1.576371918E0,9.367997000E0,7.549754977E-1,5.609052777E-1,-1.880774647E-1
9.373025000E0,1.512454834E0,-1.313264053E1,1.337618408E0,9.378053000E0,8.277235627E-1,1.157542467E0,-3.760473132E-1
9.383081000E0,2.062710571E-1,-1.221519836E1,2.246827698E-1,9.388109000E0,8.600080013E-1,1.397751331E0,-4.930900633E-1
9.393136000E0,-9.306147766E-1,-1.247460892E1,-9.380992126E-1,9.398164000E0,7.556160688E-1,1.397411466E0,-4.227550328E-1
9.403192000E0,-1.610051880E0,-1.327828766E1,-2.178869019E0,9.408220000E0,3.411118090E-1,1.252388835E0,-1.801775545E-1
9.413248000E0,-1.604363708E0,-1.344983093E1,-3.867058411E0,9.418276000E0,-5.085163713E-1,1.064264417E0,9.663081914E-2
9.423304000E0,-5.665718079E-1,-1.356104965E1,-3.253184967E0,9.428331000E0,-1.256044745E0,9.039757252E-1,1.403061301E-1
9.433359000E0,6.926097107E-1,-1.384515884E1,-4.089495850E-1,9.438387000E0,-1.265340805E0,7.530686259E-1,-1.374676824E-1
9.443415000E0,1.051712952E0,-1.423524765E1,9.803114319E-1,9.448443000E0,-1.219958425E0,4.881444871E-1,-3.335642219E-1
9.453471000E0,4.119433594E-1,-1.340267899E1,-3.167413330E-1,9.458499000E0,-1.719457388E0,5.979069471E-1,-5.202483535E-1
9.463526000E0,-1.586700439E-2,-1.062071411E1,8.199948120E-1,9.468554000E0,-2.253013372E0,9.737234116E-1,-7.826850414E-1
9.473582000E0,-5.718109131E-2,-8.908724213E0,2.252665558E0,9.478610000E0,-2.377007246E0,1.098987341E0,-1.106805682E0
9.483638000E0,-8.821156311E-1,-7.262597351E0,5.367837524E-1,9.488666000E0,-2.218318224E0,9.154154658E-1,-1.407294989E0
9.493693000E0,-2.194286957E0,-5.751639404E0,-1.528471527E0,9.498721000E0,-2.121375799E0,7.863742709E-1,-1.713078260E0
9.503749000E0,-3.357967072E0,-5.337750092E0,-1.688039703E0,9.508777000E0,-2.143245935E0,7.014308572E-1,-2.024086475E0
9.513805000E0,-4.077221375E0,-6.438261566E0,-1.340612183E0,9.518833000E0,-2.190572023E0,5.185356140E-1,-2.232966661E0
9.523861000E0,-4.641098785E0,-8.876092072E0,-1.348845062E0,9.528888000E0,-2.177453995E0,3.570063710E-1,-2.325660944E0
9.533916000E0,-5.271737366E0,-1.166060165E1,-1.341510315E0,9.538944000E0,-2.004586697E0,2.200154960E-1,-2.313709736E0
9.543972000E0,-6.036497040E0,-1.414902695E1,-8.490344238E-1,9.549000000E0,-1.810045838E0,1.765612215E-1,-2.116420031E0
9.554028000E0,-6.940317535E0,-1.644749725E1,4.228706360E-1,9.559056000E0,-1.696319818E0,3.910189271E-1,-1.761774778E0
9.564083000E0,-7.957003326E0,-1.849209549E1,1.696871338E0,9.569111000E0,-1.678622484E0,5.935477614E-1,-1.313291788E0
9.574139000E0,-8.676706696E0,-1.891915741E1,6.307882690E-1,9.579167000E0,-1.615131736E0,5.123411417E-1,-1.004671931E0
9.584195000E0,-7.924371185E0,-1.618314697E1,-2.345622253E0,9.589223000E0,-1.587142467E0,3.226398826E-1,-1.061493874E0
9.594250000E0,-6.142925720E0,-1.211745163E1,-3.795058136E0,9.599278000E0,-1.624317765E0,4.277450144E-1,-1.183440208E0
9.604306000E0,-4.724625092E0,-1.098340988E1,-2.833308105E0,9.609334000E0,-1.500554085E0,6.366246939E-1,-1.262547851E0
9.614362000E0,-3.285368042E0,-9.830657043E0,-1.336420898E0,9.619390000E0,-1.439601064E0,7.521765828E-1,-1.300342798E0
9.624418000E0,-1.683249664E0,-9.143585815E0,-6.718029785E-1,9.629445000E0,-1.627366424E0,6.280146837E-1,-1.078944087E0
9.634473000E0,-1.752405853E0,-9.567803650E0,-3.118016052E-1,9.639501000E0,-1.755647302E0,4.768425226E-1,-1.043653846E0
9.644529000E0,-1.660496979E0,-8.293054504E0,-1.426533508E-1,9.649557000E0,-1.826954246E0,-2.461833507E-1,-1.408559680E0
9.654585000E0,3.195854187E-1,-7.210805054E0,-2.053579559E0,9.659613000E0,-1.996800423E0,-8.197717071E-1,-1.607017636E0
9.664640000E0,9.645941162E-1,-8.049660645E0,-1.977238312E0,9.669668000E0,-2.079685211E0,-1.394867182E0,-1.688137054E0
9.674696000E0,5.514532471E-1,-7.721542969E0,-1.544937286E0,9.679724000E0,-2.128312111E0,-1.866236567E0,-1.681215644E0
9.684752000E0,-1.526824951E-1,-7.431296539E0,-8.660989380E-1,9.689780000E0,-2.163086414E0,-2.130772591E0,-1.604989886E0
9.694807000E0,-7.818241882E-1,-7.332501984E0,-1.477427673E-1,9.699835000E0,-2.184638739E0,-2.275070667E0,-1.615775943E0
9.704863000E0,-1.345252533E0,-6.997498627E0,1.811233521E-1,9.709891000E0,-2.146682024E0,-2.295532703E0,-1.655140162E0
9.714919000E0,-1.613943787E0,-6.971901855E0,3.881428528E-1,9.719947000E0,-2.087121725E0,-2.460369110E0,-1.640348792E0
9.724975000E0,-1.773062897E0,-6.738836517E0,7.574249268E-2,9.730002000E0,-1.977487445E0,-2.699875355E0,-1.584956646E0
9.735030000E0,-2.042352905E0,-6.361471252E0,3.722758484E-1,9.740058000E0,-1.803909302E0,-2.930418491E0,-1.534124017E0
9.745086000E0,-2.204765167E0,-5.770051117E0,6.809339905E-1,9.750114000E0,-1.537061334E0,-2.928516626E0,-1.467417121E0
9.755142000E0,-2.334694977E0,-5.260959778E0,1.081201630E0,9.760170000E0,-1.202949524E0,-2.763664722E0,-1.367383361E0
9.765197000E0,-2.601440277E0,-4.788242798E0,1.267264709E0,9.770225000E0,-7.659837008E-1,-2.408370256E0,-1.239689827E0
9.775253000E0,-3.182082825E0,-4.108206940E0,1.200204163E0,9.780281000E0,-3.025422692E-1,-2.092407942E0,-1.048992038E0
9.785309000E0,-3.713028717E0,-3.422333221E0,2.398013306E-1,9.790337000E0,8.246212453E-2,-1.949824214E0,-8.337002993E-1
9.795364000E0,-3.974834290E0,-2.886447601E0,-1.045276337E0,9.800392000E0,4.155172706E-1,-1.897668839E0,-5.677851439E-1
9.805420000E0,-3.829785919E0,-2.686313782E0,-1.416654053E0,9.810448000E0,7.189464569E-1,-1.841106772E0,-2.929159999E-1
9.815476000E0,-3.635789337E0,-2.419867859E0,-1.457219696E0,9.820506500E0,9.897128344E-1,-1.788424611E0,-4.326552898E-2
9.825534500E0,-3.292403412E0,-2.473905487E0,-1.841171265E0,9.830561500E0,1.279413342E0,-1.658477545E0,1.826453656E-1
9.835589500E0,-2.507735138E0,-2.649041290E0,-2.344125366E0,9.840617500E0,1.610750198E0,-1.516764164E0,4.132118821E-1
9.845645500E0,-1.593286743E0,-2.768492889E0,-2.839744720E0,9.850673500E0,1.986130714E0,-1.298038960E0,6.338007450E-1
9.855701500E0,-8.943901062E-1,-2.721490631E0,-2.860850830E0,9.860729500E0,2.235146284E0,-1.189166903E0,8.030468225E-1
9.865756500E0,-3.664379883E-1,-2.932701416E0,-3.319197693E0,9.870784500E0,2.438333750E0,-9.740601778E-1,1.019909143E0
9.875812500E0,-4.577481079E-1,-4.075275421E0,-2.940934296E0,9.880840500E0,2.651013613E0,-6.139107943E-1,1.200327516E0
9.885868500E0,-9.238787842E-1,-5.109624481E0,-3.109034729E0,9.890896500E0,2.757025242E0,-3.229793608E-1,1.326005816E0
9.895923500E0,-2.171983337E0,-6.879394226E0,-4.772226105E0,9.900951500E0,2.535992384E0,-2.270309627E-1,1.509528995E0
9.905979500E0,-3.383414154E0,-1.031280441E1,-9.207802277E0,9.911007500E0,1.638004184E0,-3.023582399E-1,1.740515351E0
9.916035500E0,-3.378324738E0,-1.603705078E1,-1.485181549E1,9.921063500E0,4.013858140E-1,-6.659014821E-1,1.745866299E0
9.926091500E0,-2.314786377E0,-2.566981934E1,-1.535402115E1,9.931118500E0,-1.090360880E0,-7.442455888E-1,8.754344583E-1
9.936146500E0,1.033151550E0,-3.690141312E1,-1.241638000E1,9.941174500E0,-2.180689335E0,-1.838101149E0,-1.196673393E0
9.946202500E0,5.950126648E0,-3.643812653E1,-1.707633957E1,9.951230500E0,-2.240309000E0,-2.078963995E0,-2.475288391E0
9.956258500E0,4.902455292E0,-2.366069733E1,-1.355236771E1,9.961286500E0,-1.934075594E0,-1.694410682E0,-2.830309868E0
9.966313500E0,5.778882751E0,-1.333651657E1,-9.546398163E0,9.971341500E0,-1.787078738E0,-1.044885159E0,-2.363045692E0
9.976369500E0,7.903115387E0,-7.834557953E0,-7.389084320E0,9.981397500E0,-1.715325475E0,-4.965869188E-1,-1.419034600E0
9.986425500E0,6.823111267E0,-1.745520172E0,-5.332361298E0,9.991453500E0,-1.455814838E0,-1.064685360E-2,-6.243843436E-1
9.996480500E0,2.281405792E0,3.082689514E0,-5.185217285E0,1.000150850E1,-8.390821218E-1,2.461169213E-1,-4.575339705E-2
1.000653650E1,-1.046024780E0,4.812492371E0,-6.360722809E0,1.001156450E1,1.981022209E-1,5.999900103E-1,6.326591372E-1
1.001659250E1,-2.362836456E0,1.896107025E0,-2.140249329E0,1.002162050E1,6.802586913E-1,9.937035441E-1,1.156674385E0
1.002664850E1,-4.278852081E0,-1.817670135E0,2.124532013E0,1.003167550E1,6.317108274E-1,1.448497415E0,1.510429263E0
1.003670350E1,-7.492369537E0,-8.998986511E0,5.557642822E0,1.004173150E1,5.797734857E-1,1.980661392E0,1.472675800E0
1.004675950E1,-1.210023743E1,-1.561867081E1,1.009845016E1,1.005178750E1,9.941810369E-1,1.388674498E0,1.302786827E0
1.005681550E1,-1.790097473E1,-2.215692444E1,5.730682983E0,1.006184350E1,1.624478936E0,-5.003858209E-1,8.002967834E-1
1.006687050E1,-2.110072083E1,-2.049852310E1,-3.635190582E0,1.007189850E1,1.431236506E0,-1.481885552E0,2.169214487E-1
1.007692650E1,-1.209769272E1,-1.210472809E1,-5.219945068E0,1.008195450E1,7.237848639E-1,-1.585305631E-1,1.746576577E-1
1.008698250E1,-1.118324432E0,-1.022628433E1,4.648433533E0,1.009201050E1,4.754128456E-1,1.639472008E0,2.059186399E-1
1.009703750E1,6.662644958E-1,-9.929451599E0,1.121318207E1,1.010206550E1,4.245440662E-1,2.215363264E0,3.364558220E-1
1.010709350E1,-2.107617188E0,-9.228609009E0,7.763455811E0,1.011212150E1,6.594359279E-1,2.236262560E0,3.674382269E-1
1.011714950E1,-4.377347260E0,-8.362510071E0,3.822002106E0,1.012217750E1,1.288946271E0,1.778570175E0,7.103125453E-1
1.012720550E1,-4.919519806E0,-1.035546570E1,4.343966675E-1,1.013223250E1,2.218701124E0,1.190965056E0,1.107299328E0
1.013726050E1,-4.890031128E0,-1.077115128E1,-4.390370178E-1,1.014228850E1,2.753833294E0,1.074018478E0,1.243824363E0
1.014731650E1,-4.775219879E0,-8.751401367E0,2.069147186E0,1.015234450E1,2.797501087E0,1.506399751E0,1.283210397E0
1.015737250E1,-4.559219055E0,-7.683222656E0,4.272265778E0,1.016239950E1,2.613105774E0,2.112182140E0,1.332909942E0
1.016742750E1,-4.069587250E0,-7.633975067E0,4.678371277E0,1.017245550E1,2.318914652E0,2.418953896E0,1.512569547E0
1.017748350E1,-3.423231354E0,-8.551716614E0,3.442690887E0,1.018251150E1,1.897817969E0,2.250464439E0,1.720461488E0
1.018753950E1,-3.149450684E0,-9.382489014E0,2.186203766E0,1.019256750E1,1.458077073E0,1.758684993E0,1.751132369E0
1.019759450E1,-2.779719543E0,-1.048494644E1,1.600920868E0,1.020262250E1,1.257068872E0,1.027873635E0,1.488674402E0
1.020765050E1,-2.401306458E0,-1.233809280E1,1.104702759E-1,1.021267850E1,1.640718818E0,-1.096367314E-1,1.059658766E0
1.021770650E1,-1.257684631E0,-1.267489243E1,-3.143762512E0,1.022273450E1,2.034075499E0,-7.923056483E-1,7.518821359E-1
