"time_acc","acc_x","acc_y","acc_z","time_gyro","gyro_x","gyro_y","gyro_z"
2.025654167E-2,-6.809339905E-1,-3.772006073E0,-1.287322998E-2,1.901454176E-2,-1.797741890E0,-3.605058908E0,-1.513585597E-1
3.020254173E-2,-5.837860107E-1,-2.507136383E0,1.135987701E0,2.896054182E-2,-1.425018668E0,-3.840462685E0,-3.300947547E-1
4.014754179E-2,-9.226812744E-1,-1.810036011E0,1.822609863E0,3.890554188E-2,-8.384685516E-1,-3.465967894E0,-3.987164795E-1
5.009254185E-2,-1.229692841E0,-1.117126923E0,1.522783356E0,4.885154171E-2,-2.629283369E-1,-2.761775970E0,-4.154270291E-1
6.003854168E-2,-1.300046539E0,-1.125509491E0,4.117936707E-1,5.879654177E-2,1.957021356E-1,-1.955761194E0,-3.171866834E-1
6.998354173E-2,-8.409512329E-1,-1.392853546E0,-1.272354126E0,6.874154182E-2,3.745771050E-1,-1.409608603E0,-2.840787768E-1
7.992954180E-2,-6.951544189E-1,-1.746268616E0,-2.430196381E0,7.868754189E-2,3.590849638E-1,-1.245745301E0,-2.690463960E-1
8.987454185E-2,-9.370513916E-1,-2.664010162E0,-2.316283264E0,8.863254171E-2,2.597368062E-1,-1.235356331E0,-2.846722305E-1
9.981954168E-2,-9.195378113E-1,-3.861519928E0,-2.393522644E0,9.857854177E-2,1.772040874E-1,-1.286972642E0,-2.385696024E-1
1.097655417E-1,-7.045848083E-1,-5.249733124E0,-2.351759491E0,1.085235418E-1,1.356537193E-1,-1.202600479E0,-1.954956353E-1
1.197105418E-1,-1.293310547E-1,-5.814808044E0,-2.276466064E0,1.184685419E-1,1.280620843E-1,-1.002892017E0,-2.462828457E-1
1.296565419E-1,1.297801208E-1,-6.743327179E0,-1.903142395E0,1.284145417E-1,2.309956551E-1,-7.045918703E-1,-2.334243059E-1
1.396015417E-1,2.553689575E-1,-7.679630127E0,-2.510130157E0,1.383595418E-1,3.514579535E-1,-5.978757143E-1,-2.290446460E-1
1.495465417E-1,2.995271301E-1,-9.176367645E0,-4.279899902E0,1.483055418E-1,2.820144296E-1,-8.937219977E-1,-1.821258813E-1
1.594925418E-1,6.999444580E-1,-9.718689880E0,-4.095184021E0,1.582505419E-1,1.802697480E-1,-1.086884499E0,-1.849846840E-1
1.694375419E-1,1.345252533E0,-9.643845520E0,-3.803141327E0,1.681955417E-1,1.607226729E-1,-1.061586261E0,-3.130680621E-1
1.793835417E-1,1.777403870E0,-1.076456497E1,-5.297633514E0,1.781415418E-1,-6.342524290E-2,-1.763848066E0,-5.023050904E-1
1.893285417E-1,1.968855743E0,-1.273851013E1,-5.221591644E0,1.880865418E-1,-1.883541346E-1,-1.835874796E0,-1.839329451E-1
1.992735418E-1,2.343376923E0,-1.160910873E1,-2.715203705E0,1.980325417E-1,-2.926567197E-1,-9.881688356E-1,1.485692859E-1
2.092195419E-1,2.956651611E0,-1.102352646E1,-4.754562836E0,2.079775417E-1,-4.839667678E-1,-1.754192412E-1,3.668611646E-1
2.191645417E-1,3.376378784E0,-1.151360733E1,-7.296427002E0,2.179225418E-1,-8.581286073E-1,3.669724166E-1,4.841004610E-1
2.291105418E-1,4.453987885E0,-1.184501816E1,-9.297615509E0,2.278685418E-1,-1.157595515E0,5.631440282E-1,3.811935186E-1
2.390555418E-1,6.088139648E0,-1.199949692E1,-8.845256195E0,2.378135417E-1,-1.138482809E0,4.391168356E-1,1.006492674E-1
2.490005419E-1,6.216871948E0,-1.177840668E1,-7.213499451E0,2.477595417E-1,-9.012625813E-1,1.865474433E-1,-1.825515479E-1
2.589465417E-1,4.875211945E0,-1.214454529E1,-6.602021027E0,2.577045418E-1,-7.703278065E-1,-8.671011776E-2,-4.160742760E-1
2.688915418E-1,3.032094727E0,-1.264525406E1,-5.251679077E0,2.676495418E-1,-5.638915300E-1,-3.307504654E-1,-5.263398290E-1
2.788375418E-1,2.043849792E0,-1.268357437E1,-3.504063263E0,2.775955417E-1,-3.087787628E-1,-3.350811899E-1,-5.663308501E-1
2.887825835E-1,6.382727051E-1,-1.417372559E1,-2.979404297E0,2.875405417E-1,-2.252681553E-1,-7.849602401E-2,-4.376785755E-1
2.987275834E-1,-1.647324371E0,-1.558484116E1,-1.808239746E-1,2.974865835E-1,6.330996007E-2,2.707173228E-1,-8.991378546E-2
3.086735834E-1,-4.547842712E0,-1.521406219E1,3.417243805E0,3.074315835E-1,6.366366148E-1,4.152300358E-1,5.136517286E-1
3.186185835E-1,-5.143454132E0,-1.337483688E1,4.059558105E0,3.173765833E-1,1.171638608E0,5.718509555E-1,1.105044961E0
3.285645836E-1,-4.169729004E0,-1.137529495E1,3.682941284E0,3.273225834E-1,1.542193055E0,6.643659472E-1,1.533913493E0
3.385095834E-1,-2.495909729E0,-1.077429474E1,1.362017670E0,3.372675835E-1,1.611073256E0,4.871648252E-1,1.768290281E0
3.484545834E-1,-5.258564758E-1,-1.057520874E1,-1.342408447E0,3.472135835E-1,1.379029155E0,2.924619317E-1,1.762175679E0
3.584005835E-1,3.030597839E0,-1.242596008E1,-3.044069824E0,3.571585834E-1,1.041629910E0,1.157082990E-1,1.417541981E0
3.683455836E-1,5.635630646E0,-1.161704224E1,-3.149001617E0,3.671035834E-1,7.833637595E-1,-1.166027039E-1,9.336854815E-1
3.782915834E-1,2.698139191E0,-9.918075256E0,-2.515069885E0,3.770495835E-1,5.737007260E-1,-4.421777725E-1,6.586992145E-1
3.882365834E-1,4.436773682E-1,-1.027643005E1,-1.211879883E0,3.869945835E-1,4.090427756E-1,-7.760868073E-1,5.572556853E-1
3.981815835E-1,5.110372925E-1,-9.486223297E0,2.194436646E-1,3.969405834E-1,3.316848576E-1,-8.746155500E-1,5.123335719E-1
4.081275836E-1,2.665956116E-1,-8.926686859E0,1.097368011E0,4.068855834E-1,4.376751781E-1,-6.510136127E-1,5.364649892E-1
4.180725834E-1,5.754034424E-1,-8.016429749E0,2.443069611E0,4.168305835E-1,7.312836647E-1,-1.127266511E-1,5.791338086E-1
4.280175834E-1,1.764979706E0,-7.641758881E0,3.617976379E0,4.267765835E-1,1.336534619E0,1.141093016E0,6.379529238E-1
4.379635835E-1,2.113005981E0,-5.930816803E0,4.229005737E0,4.367215834E-1,2.011957884E0,2.468171835E0,5.742600560E-1
4.479085836E-1,-6.309379578E-1,-6.360423431E0,-8.576115875E0,4.466675834E-1,5.546414256E-1,-2.370973587E0,7.257481664E-2
4.578545834E-1,-4.301604767E0,-1.133652557E1,-1.614093475E0,4.566125835E-1,1.033363342E0,-2.222378016E0,5.828387141E-1
4.677995834E-1,-2.608475647E0,-8.396788788E0,4.988675995E0,4.665575835E-1,1.496228695E0,-9.240995646E-1,1.035254121E0
4.777445835E-1,-2.068847809E0,-7.519014130E0,-5.054988098E-1,4.765035834E-1,1.490350604E0,-5.624215603E-1,1.282867551E0
4.876905833E-1,-1.669627991E0,-8.040529633E0,-6.372248840E-1,4.864485834E-1,1.468054295E0,-2.343118787E-1,1.419290662E0
4.976355834E-1,3.852987671E-1,-8.861721954E0,-4.650828552E-1,4.963945835E-1,1.281667352E0,1.626867950E-1,1.382576108E0
5.075815835E-1,2.143991547E0,-9.639205170E0,-8.433462524E-1,5.063395835E-1,1.104529023E0,5.190302134E-1,1.258016348E0
5.175265835E-1,2.601290588E0,-9.316625977E0,-3.071612549E-1,5.162845834E-1,1.076338291E0,9.634665847E-1,1.086882710E0
5.274715833E-1,2.900967407E0,-8.889713745E0,-1.993853760E-1,5.262305834E-1,1.031749010E0,1.242457032E0,8.671490550E-1
5.374175834E-1,3.054248657E0,-7.875572662E0,-6.460565186E-1,5.361755835E-1,8.949344158E-1,1.215134740E0,4.785456955E-1
5.473625835E-1,2.135159912E0,-7.735613708E0,-1.621128845E-1,5.461215836E-1,7.819106579E-1,1.272924542E0,1.802181154E-1
5.573085835E-1,5.186714172E-1,-8.285270691E0,4.676275635E-1,5.560665834E-1,7.326135635E-1,1.364702702E0,4.472498968E-2
5.672535833E-1,-5.415737915E-1,-8.109835510E0,5.254074097E-2,5.660115834E-1,7.013469934E-1,1.230985999E0,-3.063368052E-2
5.771985834E-1,-1.501527557E0,-7.947572937E0,-2.671943665E-1,5.759575835E-1,6.711660028E-1,1.037934899E0,-1.176917367E-2
5.871445835E-1,-2.169588318E0,-7.705376587E0,-1.531315613E-1,5.859025836E-1,6.746507287E-1,8.647514582E-1,6.095296517E-2
5.970895835E-1,-2.324067078E0,-7.323221283E0,-1.079255676E-1,5.958475834E-1,6.740522981E-1,7.334387302E-1,1.615930051E-1
6.070355834E-1,-2.832559662E0,-7.618108063E0,-7.319778442E-1,6.057935834E-1,6.286501884E-1,6.503968239E-1,3.641380966E-1
6.169805834E-1,-2.930905151E0,-8.045918427E0,-1.355431366E0,6.157385835E-1,5.198859572E-1,6.135405302E-1,6.154779792E-1
6.269255835E-1,-2.332599335E0,-8.029602356E0,-1.900597687E0,6.256845836E-1,3.475232422E-1,6.126545072E-1,8.506001830E-1
6.368715835E-1,-1.925595703E0,-7.565567322E0,-2.442171478E0,6.356295834E-1,1.273188740E-1,5.757703781E-1,1.032867908E0
6.468165834E-1,-1.322649536E0,-7.680378571E0,-2.268682251E0,6.455745834E-1,-7.919250429E-2,6.595182419E-1,1.162529826E0
6.567615834E-1,-3.339555359E-1,-8.543334045E0,-1.174757080E0,6.555205835E-1,-1.768011898E-1,7.570797205E-1,1.225554585E0
6.667075835E-1,1.061293030E0,-9.200617218E0,-5.538482666E-2,6.654655836E-1,-1.427225769E-1,7.495448589E-1,1.169672489E0
6.766525835E-1,2.697989502E0,-9.347611542E0,2.317181396E-1,6.754115834E-1,-4.252463207E-2,6.992667317E-1,9.903384447E-1
6.865985834E-1,4.005819855E0,-9.377100220E0,3.966751099E-2,6.853565834E-1,7.235268503E-2,7.834016085E-1,7.788642645E-1
6.965435834E-1,4.203708344E0,-9.064250793E0,-9.979747009E-1,6.953015835E-1,1.012740508E-1,8.487789035E-1,5.513705015E-1
7.064885835E-1,3.632795563E0,-8.803493042E0,-2.011517029E0,7.052475833E-1,4.979994521E-2,8.039925694E-1,3.819226325E-1
7.164345835E-1,3.033292236E0,-8.670419769E0,-1.241817627E0,7.151925834E-1,6.954588741E-2,7.559074163E-1,3.482535183E-1
7.263795834E-1,2.876119080E0,-8.830137634E0,-9.256750488E-1,7.251375834E-1,1.517728418E-1,5.720283985E-1,3.879154623E-1
7.363255834E-1,3.410807190E0,-9.448950806E0,-1.327738953E0,7.350835835E-1,2.671970725E-1,2.292591631E-1,4.140603542E-1
7.462705835E-1,5.382956085E0,-1.012853760E1,-1.452729034E0,7.450285833E-1,3.848693967E-1,-2.421360612E-1,2.974671423E-1
7.562155835E-1,7.245383148E0,-1.069840256E1,-1.188827820E0,7.549745834E-1,5.129445791E-1,-5.845993161E-1,1.648907959E-1
7.661615834E-1,7.883655853E0,-1.074495575E1,-1.715732117E0,7.649195835E-1,5.347324610E-1,-6.242783070E-1,8.292083442E-2
7.761065834E-1,7.796537018E0,-1.118279526E1,-1.731898499E0,7.748645835E-1,5.197226405E-1,-4.739943147E-1,-3.890654445E-2
7.860515835E-1,6.527326355E0,-1.166509232E1,-2.486030273E0,7.848105833E-1,4.963310659E-1,-6.370194554E-1,-1.872384846E-1
7.959975835E-1,5.367687836E0,-1.256861343E1,-2.033670959E0,7.947555834E-1,5.555464029E-1,-8.500620127E-1,-4.206262231E-1
8.059425834E-1,4.363276520E0,-1.425844940E1,-1.623823242E0,8.047015835E-1,6.250905991E-1,-1.107199550E0,-6.911770701E-1
8.158885834E-1,2.211052094E0,-1.519505173E1,-3.652554474E0,8.146465835E-1,3.921882808E-1,-1.250122309E0,-8.062309623E-1
8.258335835E-1,-7.664062500E-2,-1.528037430E1,-3.197201385E0,8.245915833E-1,1.556486785E-1,-1.225587368E0,-8.288366795E-1
8.357785835E-1,-1.291514282E0,-1.534818329E1,-1.129850464E0,8.345375834E-1,-5.405070260E-2,-1.279752374E0,-8.939177394E-1
8.457245834E-1,-2.104324036E0,-1.563558563E1,1.368903351E0,8.444825835E-1,-2.817730904E-1,-1.250035405E0,-1.012816191E0
8.556695834E-1,-2.725831604E0,-1.522409134E1,3.541784821E0,8.544275835E-1,-3.704527915E-1,-1.207758665E0,-1.138884187E0
8.656155835E-1,-2.941682739E0,-1.444496155E1,4.613106995E0,8.643735833E-1,-4.639680982E-1,-1.176248431E0,-1.277053237E0
8.755605835E-1,-3.752097473E0,-1.409424088E1,3.009342041E0,8.743185834E-1,-7.722363472E-1,-1.073139548E0,-1.206325650E0
8.855055834E-1,-4.684508514E0,-1.301019516E1,-1.885778503E0,8.842645835E-1,-1.301247358E0,-1.134047151E0,-1.089216232E0
8.954515834E-1,-4.252806244E0,-1.365849701E1,-4.918322296E0,8.942095835E-1,-1.911705971E0,-1.159693718E0,-1.184372425E0
9.053965835E-1,-3.143912201E0,-1.516212021E1,-3.474724274E0,9.041545833E-1,-2.294397593E0,-1.077573538E0,-1.586666584E0
9.153415835E-1,-4.375850372E0,-1.641471542E1,-3.748205566E-1,9.141005834E-1,-2.469273567E0,-8.574838042E-1,-1.877544880E0
9.252875834E-1,-6.435567169E0,-1.696122894E1,3.103047180E0,9.240455835E-1,-2.322015047E0,-2.877987623E-1,-1.914279699E0
9.352325834E-1,-8.215366058E0,-1.691063416E1,5.570066986E0,9.339905835E-1,-1.901811838E0,5.118117929E-1,-1.703575969E0
9.451775835E-1,-9.936337280E0,-1.652039566E1,5.345384216E0,9.439365834E-1,-1.363413095E0,1.053253770E0,-1.351917505E0
9.551235836E-1,-1.074166260E1,-1.527977554E1,3.744912415E0,9.538815834E-1,-9.284477234E-1,1.179327130E0,-1.000610352E0
9.650685834E-1,-1.029603928E1,-1.319790482E1,1.881287842E0,9.638275835E-1,-7.061259747E-1,1.045507908E0,-7.264866829E-1
9.750145834E-1,-8.694220276E0,-1.096918945E1,1.698966980E-1,9.737725835E-1,-6.531974673E-1,8.786032200E-1,-4.836915731E-1
9.849595835E-1,-6.868317261E0,-9.086554413E0,-1.138382721E0,9.837175834E-1,-7.685272694E-1,7.947911024E-1,-2.831059992E-1
9.949045836E-1,-4.743485870E0,-7.984246674E0,-2.595452728E0,9.936635834E-1,-9.200546741E-1,7.265424132E-1,-4.254629090E-2
1.004850583E0,-3.046764221E0,-7.703430634E0,-3.107687531E0,1.003608583E0,-1.046086550E0,8.237493634E-1,2.167931348E-1
1.014795583E0,-1.045875092E0,-6.609655151E0,-3.334915009E0,1.013553584E0,-1.249789596E0,8.499586582E-1,3.720514476E-1
1.024741584E0,1.903741150E0,-5.896687775E0,-3.487148438E0,1.023499583E0,-1.450111032E0,5.330815911E-1,2.921470404E-1
1.034686584E0,5.615722046E0,-6.988217926E0,-3.280877380E0,1.033444583E0,-1.589460373E0,1.290480644E-1,-4.440554231E-2
1.044631583E0,7.632478180E0,-8.274343414E0,-2.874023438E0,1.043390583E0,-1.711190224E0,-3.097237051E-1,-4.999970496E-1
1.054577583E0,6.692133636E0,-8.837771759E0,-2.235601044E0,1.053335584E0,-1.724335432E0,-5.231869221E-1,-6.459219456E-1
1.064522584E0,3.958069153E0,-8.237519989E0,-1.167572021E0,1.063280583E0,-1.617388964E0,-7.675269246E-1,-5.062490106E-1
1.074467584E0,3.330424347E0,-6.298452301E0,-7.435038757E-1,1.073226583E0,-1.446851254E0,-1.088379383E0,-4.280330837E-1
1.084413583E0,3.172353058E0,-4.951702881E0,-5.776487732E-1,1.083171583E0,-1.248438835E0,-1.459352732E0,-3.735424280E-1
1.094358583E0,2.475701752E0,-4.680616608E0,-4.001179504E-1,1.093116584E0,-1.059125543E0,-1.763556480E0,-3.126333356E-1
1.104304584E0,2.258204041E0,-4.654271393E0,-8.714877319E-1,1.103062583E0,-9.172469974E-1,-1.968586087E0,-3.287649155E-1
1.114249583E0,1.972747650E0,-4.835544434E0,-6.596781921E-1,1.113007583E0,-7.330979109E-1,-1.987117052E0,-3.471829891E-1
1.124194583E0,1.251248016E0,-4.583768005E0,-3.098556519E-1,1.122953583E0,-5.480026007E-1,-1.897678018E0,-3.763267696E-1
1.134140583E0,7.191046143E-1,-4.043990479E0,-3.121009827E-1,1.132898584E0,-3.581919968E-1,-1.744387150E0,-3.995697498E-1
1.144085584E0,1.335223389E-1,-3.532953186E0,-1.984872437E-1,1.142843583E0,-1.692210138E-1,-1.631282926E0,-4.153242111E-1
1.154030583E0,-1.290316772E-1,-3.077600098E0,1.362167358E-2,1.152789583E0,4.561502114E-2,-1.516817808E0,-4.461759031E-1
1.163976583E0,-2.827619934E-1,-2.842439117E0,2.345622253E-1,1.162734583E0,3.033125997E-1,-1.372639060E0,-4.884312153E-1
1.173921583E0,-3.583547974E-1,-2.895877991E0,-1.511856079E-2,1.172679584E0,5.549671650E-1,-1.280597687E0,-5.413028002E-1
1.183866584E0,2.074685669E-1,-2.604733429E0,-7.316784668E-1,1.182625583E0,7.296135426E-1,-1.251789212E0,-6.757565141E-1
1.193812583E0,4.388873291E-1,-2.455344086E0,-1.050216064E0,1.192570583E0,8.990536332E-1,-1.214721084E0,-7.390511036E-1
1.203757583E0,-7.637118530E-1,-4.082310791E0,-1.075962524E0,1.202516583E0,1.098926187E0,-1.191117764E0,-5.799101591E-1
1.213703583E0,-1.236279144E0,-5.728287964E0,-2.282004547E0,1.212461584E0,1.157071114E0,-1.296736836E0,-4.073627293E-1
1.223648584E0,-1.071621552E0,-7.486531677E0,-4.086352386E0,1.222406583E0,1.124267340E0,-1.594033837E0,-2.851457298E-1
1.233593583E0,-4.489164734E-1,-9.741442566E0,-5.935307465E0,1.232352583E0,9.279912710E-1,-2.194910049E0,-1.942498237E-1
1.243539583E0,4.531077576E-1,-1.161075531E1,-6.632258148E0,1.242297583E0,6.962504387E-1,-2.399739981E0,-8.172699809E-2
1.253484583E0,5.634283447E-1,-1.359877121E1,-6.711593170E0,1.252242584E0,3.033549190E-1,-2.211176634E0,-2.278164960E-2
1.263429584E0,-2.230361938E-1,-1.595083008E1,-6.797963562E0,1.262188583E0,-1.657387912E-1,-1.605332017E0,-5.949572474E-2
1.273375583E0,-2.780617676E0,-1.827594498E1,-5.100194092E0,1.272133583E0,-4.043795168E-1,-9.864982963E-1,-4.664641991E-2
1.283320583E0,-4.399650879E0,-1.792971497E1,-5.376968536E0,1.282078583E0,-5.273826718E-1,-4.959549606E-1,-3.416152298E-2
1.293266333E0,-3.929478607E0,-1.532797531E1,-7.287295990E0,1.292025334E0,-7.242146134E-1,-1.378972828E-1,-1.562531441E-1
1.303212333E0,-2.632874908E0,-1.246847168E1,-8.902137909E0,1.301970334E0,-8.070695400E-1,2.054001540E-1,-2.933902442E-1
1.313157334E0,-1.961670685E0,-1.023825943E1,-8.576714630E0,1.311916333E0,-6.874971390E-1,7.336366177E-1,-3.730175197E-1
1.323103333E0,-2.242337036E0,-9.560319214E0,-7.811805267E0,1.321861333E0,-8.781970739E-1,1.257252455E0,-4.942011833E-1
1.333048333E0,-3.883673859E0,-1.012314880E1,-5.852230225E0,1.331806334E0,-1.144430637E0,1.598530412E0,-4.957487583E-1
1.342993333E0,-5.183720398E0,-1.221175552E1,-5.469326477E0,1.341752333E0,-1.309774041E0,1.588187695E0,-3.730196357E-1
1.352939334E0,-4.655319214E0,-1.640977570E1,-4.965474243E0,1.351697333E0,-1.352730870E0,1.189143658E0,-2.263299823E-1
1.362884333E0,-3.691772919E0,-2.159035263E1,-3.830684052E0,1.361642333E0,-1.241191268E0,6.959302425E-1,-6.572064012E-3
1.372829333E0,-2.332449646E0,-2.280642380E1,-1.500330048E0,1.371588334E0,-7.382186651E-1,7.795206904E-1,4.585174024E-1
1.382775333E0,-8.334667969E-1,-1.720417374E1,1.128652954E-1,1.381533333E0,-2.468835711E-1,1.356790185E0,6.418078542E-1
1.392720334E0,-1.087039490E0,-8.988657990E0,1.302740936E0,1.391478333E0,2.543711364E-1,1.704056501E0,7.174691558E-1
1.402666333E0,-2.779719543E0,-5.109774170E0,1.082399139E0,1.401424333E0,4.395393729E-1,1.963501930E0,8.301991820E-1
1.412611333E0,-2.591411133E0,-4.600383453E0,-1.692979431E-1,1.411369334E0,2.239012718E-1,1.832668781E0,8.001796007E-1
1.422556333E0,-2.050585785E0,-6.245761871E0,-1.198707275E0,1.421315333E0,6.035734713E-2,1.474838972E0,9.084589481E-1
1.432502334E0,-2.969824219E-1,-8.236921234E0,9.729766846E-2,1.431260333E0,1.244328097E-1,1.034174442E0,1.066950321E0
1.442447333E0,2.103725281E0,-9.154363403E0,1.198707275E0,1.441205333E0,2.762798667E-1,5.505284667E-1,1.201832294E0
1.452392333E0,2.611319733E0,-9.699978790E0,1.786534882E0,1.451151334E0,4.493204951E-1,2.370482981E-1,1.369974852E0
1.462338333E0,2.381996613E0,-9.709409180E0,1.813778229E0,1.461096333E0,6.640298963E-1,-6.053918600E-2,1.470083117E0
1.472283334E0,2.409838715E0,-9.946067047E0,1.457070007E0,1.471041333E0,8.464988470E-1,-4.066245258E-1,1.494933724E0
1.482228333E0,2.432890778E0,-1.030397278E1,1.426832886E0,1.480987333E0,1.081769586E0,-6.851764917E-1,1.380060315E0
1.492174333E0,2.970123596E0,-1.018197647E1,2.121089172E0,1.490932334E0,1.372090816E0,-6.931203008E-1,1.112307191E0
1.502119333E0,2.734214172E0,-1.059856018E1,2.684966583E0,1.500877333E0,1.728738666E0,-5.067807436E-1,7.754752040E-1
1.512064334E0,2.372416534E0,-1.040995239E1,3.039579163E0,1.510823333E0,2.113315105E0,-2.388963252E-1,4.279939532E-1
1.522010333E0,1.387913818E0,-9.618997192E0,2.989134064E0,1.520768333E0,2.459386826E0,1.514317393E-1,1.540670544E-1
1.531955333E0,2.404000854E-1,-8.775800629E0,2.059417419E0,1.530714334E0,2.662700415E0,6.857032776E-1,-3.784086183E-2
1.541901333E0,-8.520281982E-1,-8.371790771E0,-3.106040955E-1,1.540659333E0,2.661320686E0,1.111527801E0,-1.461372375E-1
1.551846334E0,-1.440604248E0,-8.162376251E0,-2.849175110E0,1.550604333E0,2.417178631E0,1.433996558E0,-2.206476033E-1
1.561791333E0,-2.050735474E0,-8.055199127E0,-4.183051300E0,1.560550333E0,2.028232813E0,1.663953662E0,-2.056412250E-1
1.571737333E0,-2.741848297E0,-8.228239288E0,-4.445904694E0,1.570495334E0,1.590259671E0,1.759428978E0,-9.854513407E-2
1.581682333E0,-3.137026520E0,-8.318651276E0,-4.015699310E0,1.580440333E0,1.130830050E0,1.800411463E0,5.886553228E-2
1.591627334E0,-3.151246948E0,-8.277486877E0,-3.036286011E0,1.590386333E0,6.861680746E-1,1.864833117E0,1.637250036E-1
1.601573333E0,-2.838098145E0,-8.247549133E0,-2.167792053E0,1.600331333E0,2.572851777E-1,1.899953842E0,1.505543441E-1
1.611518333E0,-2.388133850E0,-8.268804932E0,-1.541644135E0,1.610276334E0,1.105727404E-1,1.616219163E0,2.365625501E-1
1.621463333E0,-1.819466400E0,-8.404422913E0,1.992356873E-1,1.620222333E0,6.574322283E-2,1.614222288E0,2.972477376E-1
1.631409334E0,-1.038540344E0,-8.190368042E0,1.195713501E0,1.630167333E0,9.570281953E-2,1.693176627E0,3.012536764E-1
1.641354333E0,-6.245013428E-1,-8.048912201E0,1.560804291E0,1.640112333E0,2.374644876E-1,1.743286133E0,3.141577542E-1
1.651299333E0,-2.607577515E-1,-8.074658661E0,1.752854919E0,1.650058334E0,3.996962905E-1,1.804218173E0,3.098829091E-1
1.661245333E0,2.814147949E-2,-8.378227386E0,1.173409882E0,1.660003333E0,5.476458073E-1,1.792499423E0,3.413689435E-1
1.671190334E0,1.327738953E-1,-8.856931915E0,4.683760071E-1,1.669948333E0,6.354316473E-1,1.802308321E0,3.854395747E-1
1.681136333E0,2.254312134E-1,-8.978329468E0,-2.157014465E-1,1.679894333E0,6.586517096E-1,1.805924058E0,4.691584408E-1
1.691081333E0,2.815644836E-1,-8.734785919E0,-4.447251892E-1,1.689839334E0,6.400878429E-1,1.824932098E0,5.886797905E-1
1.701026333E0,2.296224976E-1,-8.464897156E0,-6.391708374E-2,1.699785333E0,6.419893503E-1,1.847581744E0,7.582033277E-1
1.710972334E0,2.760260010E-1,-8.193511505E0,3.727249146E-1,1.709730333E0,6.860759854E-1,1.766141057E0,9.558042884E-1
1.720917333E0,6.462062073E-1,-7.832612000E0,2.716850281E-1,1.719675333E0,7.059836388E-1,1.509065270E0,1.098825336E0
1.730862333E0,1.273701324E0,-7.386539612E0,-6.165678406E-1,1.729621334E0,6.612677574E-1,1.061660767E0,1.168501854E0
1.740808334E0,2.036664734E0,-6.825805664E0,-2.069895630E0,1.739566333E0,5.258287191E-1,5.616362691E-1,1.177676439E0
1.750753334E0,3.060984650E0,-6.270161133E0,-3.049608307E0,1.749511333E0,2.664362490E-1,2.144541740E-1,1.106016397E0
1.760698333E0,4.090094604E0,-6.187083893E0,-2.479593658E0,1.759457333E0,7.446280867E-2,9.846819937E-2,9.264711142E-1
1.770644333E0,4.113595734E0,-6.548881531E0,-5.644761658E-1,1.769402334E0,2.451979369E-2,1.914397776E-1,6.521171331E-1
1.780589334E0,3.015628967E0,-7.128027191E0,4.311035156E-1,1.779347333E0,8.446994424E-2,1.495040506E-1,3.700915873E-1
1.790534334E0,7.592211914E-1,-7.691006470E0,8.006849670E-1,1.789293333E0,2.369122058E-1,1.684588045E-1,2.503343821E-1
1.800480333E0,-1.582958221E0,-8.256680145E0,7.845185852E-1,1.799238333E0,4.187794626E-1,2.969195843E-1,3.082174063E-1
1.810425333E0,-2.160457306E0,-8.785530396E0,-2.104623413E-1,1.809183334E0,5.639555454E-1,3.284748197E-1,4.038224518E-1
1.820370334E0,-9.357041931E-1,-9.422306213E0,-1.356628876E0,1.819129333E0,6.256860495E-1,3.631473184E-1,4.322530329E-1
1.830316333E0,1.072519684E0,-1.037567368E1,-2.591560822E0,1.829074333E0,6.105733514E-1,4.108441472E-1,3.683045208E-1
1.840261333E0,3.032394104E0,-1.135613480E1,-3.518882446E0,1.839019333E0,5.525460243E-1,4.689564705E-1,2.469983250E-1
1.850207333E0,4.167783051E0,-1.225142303E1,-4.029470673E0,1.848965334E0,4.597442448E-1,4.467703998E-1,1.073131338E-1
1.860152334E0,4.313130798E0,-1.301797897E1,-4.197421417E0,1.858910333E0,3.642052114E-1,2.689327598E-1,-5.020866171E-3
1.870097333E0,3.799997864E0,-1.341181000E1,-3.679797821E0,1.868856333E0,3.205993176E-1,1.324727479E-2,-8.134120703E-2
1.880043333E0,3.073708191E0,-1.347752335E1,-2.729723511E0,1.878801333E0,3.699567616E-1,-1.729055643E-1,-1.118543744E-1
1.889988333E0,2.286345520E0,-1.340537338E1,-1.772913208E0,1.888746334E0,4.057679474E-1,-2.598516941E-1,-7.812268287E-2
1.899933334E0,1.942660217E0,-1.369651794E1,-9.668394470E-1,1.898692333E0,5.740528703E-1,-4.952703714E-1,-5.731620640E-2
1.909879333E0,1.632505188E0,-1.486528748E1,-1.359323273E0,1.908637333E0,6.843435168E-1,-7.652874589E-1,-4.120949656E-2
1.919824333E0,1.089135132E0,-1.583991074E1,-2.305355988E0,1.918582333E0,5.589565635E-1,-8.080189228E-1,-3.861670848E-4
1.929769333E0,9.973759460E-1,-1.576446762E1,-2.585273895E0,1.928528334E0,3.538328707E-1,-7.761230469E-1,-1.094444748E-2
1.939715334E0,1.115031281E0,-1.521795410E1,-3.512146454E0,1.938473333E0,-5.986949429E-2,-9.872416854E-1,-1.269408315E-1
1.949660333E0,1.363514557E0,-1.439840836E1,-1.726360016E0,1.948418333E0,-5.176231265E-1,-1.001204610E0,-2.581408322E-1
1.959605333E0,1.536854095E0,-1.346509918E1,8.295748901E-1,1.958364333E0,-8.245628476E-1,-1.012025237E0,-4.196319878E-1
1.969551333E0,1.207239532E0,-1.265917511E1,1.803599396E0,1.968309334E0,-1.013471723E0,-1.216889501E0,-6.235004067E-1
1.979496334E0,4.825964355E-1,-1.179172897E1,2.073787537E0,1.978254333E0,-1.105015993E0,-1.465837836E0,-8.658403754E-1
1.989441333E0,-8.237370300E-1,-1.048404831E1,1.878593445E0,1.988200333E0,-1.198041201E0,-1.560601592E0,-1.000709057E0
1.999387333E0,-1.842368774E0,-9.629625092E0,6.325845337E-1,1.998145333E0,-1.464955688E0,-1.434198976E0,-1.130285382E0
2.009332333E0,-2.005679169E0,-1.072848999E1,-2.616708527E0,2.008090334E0,-2.050901890E0,-1.153823018E0,-1.364682674E0
2.019277334E0,-2.784509583E0,-1.345956070E1,-3.609743500E0,2.018036333E0,-2.458798885E0,-9.320141673E-1,-1.571316719E0
2.029223333E0,-4.038901062E0,-1.471035965E1,-5.860313416E-1,2.027981333E0,-2.525084734E0,-6.553555131E-1,-1.706199050E0
2.039168333E0,-5.644013214E0,-1.585907089E1,2.149080963E0,2.037926333E0,-2.374283075E0,-1.798736602E-1,-1.675792098E0
2.049113333E0,-8.249495087E0,-1.676319077E1,4.373605042E0,2.047872334E0,-1.988989592E0,4.852240086E-1,-1.332865596E0
2.059059334E0,-1.042252625E1,-1.601609436E1,4.585414581E0,2.057817333E0,-1.504716635E0,8.768258691E-1,-7.765605450E-1
2.069004333E0,-9.836644592E0,-1.275916718E1,3.012635193E0,2.067762333E0,-1.094263077E0,8.203921318E-1,-3.141202331E-1
2.078949333E0,-6.771917725E0,-9.590107269E0,1.440753937E0,2.077708333E0,-8.669348955E-1,5.478258729E-1,-2.687245607E-2
2.088895333E0,-3.568279724E0,-8.379574585E0,8.155041504E-1,2.087653334E0,-7.503023744E-1,3.373451531E-1,1.346325427E-1
2.098840334E0,-1.304836578E0,-8.122409363E0,-3.689826965E-1,2.097598333E0,-7.530078888E-1,5.114535242E-2,1.780173033E-1
2.108785333E0,1.354533234E0,-8.484057312E0,-2.315385132E0,2.107544333E0,-8.813620210E-1,-1.613613814E-1,3.522571176E-2
2.118731333E0,4.041894836E0,-8.867709503E0,-3.530408478E0,2.117489333E0,-1.121614575E0,-1.773089319E-1,-2.601486742E-1
2.128676333E0,4.556973724E0,-9.825567627E0,-4.556674347E0,2.127434334E0,-1.370345950E0,-2.858879566E-1,-4.732618332E-1
2.138622334E0,3.845802612E0,-1.061233154E1,-4.022584991E0,2.137380333E0,-1.455184340E0,-3.575235307E-1,-5.649704337E-1
2.148567333E0,2.531685333E0,-1.088042404E1,-3.335064697E0,2.147325333E0,-1.473422766E0,-5.899164677E-1,-5.108231902E-1
2.158512333E0,1.829196167E0,-9.616751862E0,-3.408412170E0,2.157271334E0,-1.512225866E0,-9.866928458E-1,-4.704838097E-1
2.168457333E0,1.940863953E0,-8.058192902E0,-2.272723846E0,2.167216334E0,-1.485016346E0,-1.254895926E0,-5.019698739E-1
2.178403334E0,1.590592346E0,-7.172784119E0,-1.226699066E0,2.177161333E0,-1.397168159E0,-1.400467992E0,-5.129719377E-1
2.188348333E0,1.045725403E0,-6.937174072E0,-9.972262573E-1,2.187106333E0,-1.257841825E0,-1.497249126E0,-4.953840971E-1
2.198294333E0,4.739144897E-1,-6.787635040E0,-5.107379150E-1,2.197052334E0,-1.112972975E0,-1.435648799E0,-4.814778566E-1
2.208239333E0,1.534309387E-1,-6.244564362E0,-3.513194275E-1,2.206997334E0,-9.638522863E-1,-1.340606809E0,-5.262526870E-1
2.218184334E0,-8.352630615E-2,-5.712870026E0,-1.740879822E-1,2.216943333E0,-8.211489320E-1,-1.247281313E0,-5.702515841E-1
2.228130333E0,-2.140548706E-1,-5.121749268E0,-3.046165466E-1,2.226888333E0,-6.978229880E-1,-1.222962856E0,-6.010581851E-1
2.238075333E0,-2.415975952E-1,-4.492607574E0,-6.782395935E-1,2.236833334E0,-5.961014032E-1,-1.313993216E0,-6.144245863E-1
2.248020333E0,-2.628533936E-1,-3.702251129E0,-7.816744995E-1,2.246779333E0,-4.838412404E-1,-1.381644130E0,-6.228097677E-1
2.257966334E0,-4.640350342E-1,-2.952011261E0,-4.384382629E-1,2.256724333E0,-3.181249797E-1,-1.378170013E0,-5.814407468E-1
2.267911333E0,-6.512956238E-1,-2.481090546E0,-1.495390320E-1,2.266669333E0,-1.221265346E-1,-1.371277332E0,-5.044439435E-1
2.277856333E0,-8.961863708E-1,-2.579436035E0,-1.975891113E-1,2.276615334E0,4.898156226E-2,-1.385146499E0,-3.889344335E-1
2.287802333E0,-8.705895996E-1,-3.077151031E0,-4.686753845E-1,2.286560333E0,2.128118426E-1,-1.504133224E0,-3.321257532E-1
2.297746708E0,-4.082011414E-1,-3.314407654E0,-8.442443848E-1,2.296504708E0,3.527788222E-1,-1.626213670E0,-3.247027099E-1
2.307691708E0,-2.215393066E-1,-3.889811096E0,-1.344953156E0,2.306450709E0,4.805727005E-1,-1.671994448E0,-3.118974268E-1
2.317637709E0,-1.643582153E-1,-4.714895325E0,-1.601070557E0,2.316395708E0,6.437323093E-1,-1.535002232E0,-2.986463308E-1
2.327582709E0,-2.321672058E-1,-5.782175903E0,-1.800006866E0,2.326340708E0,8.555154800E-1,-1.224341631E0,-2.738881707E-1
2.337527708E0,-3.576063538E-1,-6.976093140E0,-2.651585999E0,2.336286708E0,1.015040517E0,-1.017831922E0,-2.873757780E-1
2.347473708E0,-8.361611938E-1,-8.778345337E0,-4.703518982E0,2.346231709E0,9.692264795E-1,-1.117122650E0,-2.830524743E-1
2.357418709E0,-1.617087250E0,-1.091769653E1,-5.760021973E0,2.356176708E0,7.306531072E-1,-1.077957630E0,-1.830872744E-1
2.367363709E0,-1.607656860E0,-1.217029175E1,-6.096971283E0,2.366122708E0,5.246434212E-1,-8.707138896E-1,-2.363751456E-2
2.377309708E0,-5.661227417E-1,-1.247835114E1,-6.935377808E0,2.376067708E0,3.174798489E-1,-8.271442652E-1,7.756500691E-2
2.387254708E0,-4.781057739E-1,-1.346958984E1,-7.567812653E0,2.386012709E0,-4.444125108E-3,-8.029286861E-1,7.818712294E-2
2.397199709E0,-2.157014465E0,-1.505554184E1,-6.835385742E0,2.395958708E0,-3.322025537E-1,-7.547214627E-1,1.180858016E-1
2.407145708E0,-2.896476746E0,-1.467967346E1,-6.876101074E0,2.405903708E0,-6.584066153E-1,-6.748051047E-1,1.671274751E-1
2.417090708E0,-1.638941803E0,-1.314476532E1,-7.830965424E0,2.415848708E0,-9.873855710E-1,-4.931849539E-1,7.581086457E-2
2.427035708E0,3.784130859E-1,-1.155387360E1,-8.119265900E0,2.425794709E0,-1.158009410E0,-7.788539678E-2,-7.039534301E-2
2.436981709E0,2.001338196E0,-9.556726685E0,-6.863976288E0,2.435739708E0,-9.998799562E-1,5.406971574E-1,-2.103044987E-1
2.446926708E0,2.953657837E0,-8.300089874E0,-6.360423431E0,2.445684708E0,-7.933078408E-1,1.017288804E0,-4.433842003E-1
2.456871708E0,1.761387177E0,-9.665101318E0,-5.724096680E0,2.455630708E0,-7.158029079E-1,1.245732427E0,-6.469668746E-1
2.466817708E0,7.081773376E-1,-1.210487778E1,-4.819078674E0,2.465575709E0,-5.749909878E-1,1.134064078E0,-6.244294643E-1
2.476762709E0,1.149459686E0,-1.377330826E1,-4.404590607E0,2.475520708E0,-4.545122981E-1,6.860597134E-1,-5.411800742E-1
2.486707708E0,-2.957849121E-1,-1.649689453E1,-4.684209137E0,2.485466708E0,-6.982122064E-1,3.628383875E-1,-3.334587812E-1
2.496653708E0,-8.190966797E-1,-1.806742859E1,-3.914509735E0,2.495411708E0,-7.370749116E-1,9.313897789E-2,-2.036589384E-1
2.506598708E0,-7.364685059E-1,-1.578512466E1,-3.034789124E0,2.505356709E0,-3.929782808E-1,-1.890521497E-2,3.598897532E-2
2.516543709E0,-2.166444855E0,-1.179606995E1,-1.638043671E0,2.515302708E0,7.239501923E-2,-1.009526774E-1,2.725660801E-1
2.526488708E0,-3.160976715E0,-7.859705658E0,-3.805087280E-1,2.525247708E0,5.060335398E-1,5.431762338E-2,5.222129226E-1
2.536434708E0,-4.174818420E0,-7.633376312E0,-2.088157654E-1,2.535192708E0,6.263642311E-1,5.256263018E-1,8.317814469E-1
2.546379708E0,-3.847898254E0,-9.496851196E0,-1.116528168E0,2.545138709E0,6.559662819E-1,6.732441783E-1,1.048280358E0
2.556324709E0,-1.472637634E0,-1.035741165E1,-1.191821594E0,2.555083708E0,6.975054741E-1,6.651872993E-1,1.197705746E0
2.566270708E0,9.357041931E-1,-1.047132477E1,-3.222798157E-1,2.565028708E0,7.364168763E-1,6.442553997E-1,1.234867573E0
2.576215708E0,2.079176331E0,-1.011910721E1,-1.146615601E-1,2.574973708E0,7.013089657E-1,4.116077125E-1,1.201416850E0
2.586160708E0,2.234852600E0,-9.638307037E0,-5.448669434E-2,2.584919709E0,6.681934595E-1,4.148866981E-3,1.149337053E0
2.596106709E0,1.936972046E0,-9.189839630E0,7.375163269E-1,2.594864708E0,7.169327736E-1,-3.282011151E-1,1.094377398E0
2.606051708E0,1.773212585E0,-8.803642731E0,1.013093262E0,2.604809708E0,7.713979483E-1,-7.272829413E-1,1.041275144E0
2.615996708E0,1.638941803E0,-8.746761017E0,1.073417816E0,2.614755708E0,8.642882109E-1,-9.822723866E-1,9.561606050E-1
2.625942708E0,1.605710907E0,-8.964408417E0,1.410367126E0,2.624700709E0,1.044898629E0,-1.045126677E0,8.498119712E-1
2.635887709E0,1.627266083E0,-9.163943481E0,1.632954254E0,2.634645708E0,1.302631855E0,-9.717081785E-1,7.108796239E-1
2.645832708E0,1.702110443E0,-9.095236359E0,1.866169281E0,2.644591708E0,1.585711837E0,-7.144160271E-1,5.003933311E-1
2.655778708E0,1.549278259E0,-8.858428802E0,1.424886932E0,2.654536708E0,1.798506141E0,-4.083405435E-1,2.464167029E-1
2.665723708E0,8.643026733E-1,-8.595126343E0,3.062631226E-1,2.664481709E0,1.880323172E0,9.472362697E-3,-2.210761607E-2
2.675668709E0,-2.487826538E-1,-8.139922943E0,-1.296304321E0,2.674427708E0,1.826719642E0,3.640123606E-1,-2.159053087E-1
2.685614708E0,-1.315165100E0,-7.421417084E0,-2.566413116E0,2.684372708E0,1.679393530E0,5.588613153E-1,-3.250674903E-1
2.695559708E0,-2.258802795E0,-6.991660767E0,-3.043022003E0,2.694317708E0,1.456169248E0,6.965613961E-1,-3.036822975E-1
2.705504708E0,-3.028053131E0,-6.861132202E0,-2.645149384E0,2.704263709E0,1.230031729E0,8.981027007E-1,-2.103700191E-1
2.715450709E0,-3.260370026E0,-6.709048462E0,-2.149230652E0,2.714208708E0,1.025598645E0,9.757575393E-1,-6.143007055E-2
2.725395708E0,-2.914589081E0,-6.556066589E0,-1.428479462E0,2.724153708E0,8.939852715E-1,8.952087760E-1,8.915960789E-2
2.735340708E0,-2.268981628E0,-6.375991058E0,-3.460803223E-1,2.734099708E0,8.594989181E-1,7.723566294E-1,2.068079412E-1
2.745286708E0,-1.450932770E0,-6.354435883E0,2.631527710E-1,2.744044709E0,8.777937293E-1,6.571738124E-1,2.668920457E-1
2.755231709E0,-4.487667847E-1,-6.837331696E0,3.394940186E-1,2.753989708E0,8.875757456E-1,5.953514576E-1,2.491090745E-1
2.765176708E0,3.574566650E-1,-7.479196930E0,1.562750244E-1,2.763935708E0,8.822554946E-1,6.103696227E-1,1.701682657E-1
2.775122708E0,8.937913513E-1,-8.017627258E0,-8.427474976E-2,2.773880708E0,8.668975830E-1,6.698564291E-1,8.379316330E-2
2.785067708E0,1.020128632E0,-8.700656891E0,-1.077758789E-1,2.783825709E0,8.695037365E-1,7.211041451E-1,3.100745007E-2
2.795012709E0,8.834628296E-1,-9.506281586E0,6.361770630E-2,2.793771708E0,9.003993273E-1,7.675488591E-1,2.158678509E-2
2.804958708E0,4.695735168E-1,-1.005833359E1,-3.278182983E-2,2.803716708E0,9.259276390E-1,8.081266284E-1,7.291494310E-2
2.814903708E0,-4.685256958E-2,-1.029424301E1,-5.331912231E-1,2.813661708E0,9.242700934E-1,8.475302458E-1,1.818142682E-1
2.824848708E0,-3.971241760E-1,-1.017928207E1,-1.161883850E0,2.823607709E0,8.737488389E-1,8.865141273E-1,3.331686258E-1
2.834794709E0,-5.873785400E-1,-9.841734009E0,-1.678459625E0,2.833552708E0,7.956956029E-1,8.920351267E-1,4.863704145E-1
2.844739708E0,-6.007008362E-1,-9.333241425E0,-2.048789520E0,2.843497708E0,6.834918857E-1,8.867491484E-1,6.238042116E-1
2.854684708E0,-3.927832031E-1,-8.755442963E0,-2.400558014E0,2.853443709E0,5.252497792E-1,8.492542505E-1,7.355536819E-1
2.864629708E0,-4.101470947E-2,-8.405470734E0,-2.565664673E0,2.863388709E0,3.408954144E-1,7.500425577E-1,8.358709812E-1
2.874575709E0,3.085084534E-1,-8.298892365E0,-2.263592834E0,2.873333708E0,1.673523933E-1,5.771605372E-1,9.210521579E-1
2.884520708E0,7.590715027E-1,-8.368347931E0,-1.599423981E0,2.883278708E0,1.178541780E-1,3.756707311E-1,9.747447371E-1
2.894465708E0,1.491797791E0,-8.523724823E0,-1.248104553E0,2.893224709E0,1.505343467E-1,2.017612606E-1,9.519209266E-1
2.904411708E0,2.179916840E0,-8.689430237E0,-1.097966766E0,2.903169709E0,1.902354807E-1,1.256279647E-1,8.452262282E-1
2.914356709E0,2.395917664E0,-8.815617828E0,-8.653504944E-1,2.913114708E0,2.549974322E-1,1.345807165E-1,6.747618318E-1
2.924301708E0,2.020049286E0,-8.704548798E0,-1.201551361E0,2.923060708E0,2.581771016E-1,1.655679196E-1,5.112950802E-1
2.934247708E0,1.223705292E0,-8.456813965E0,-1.327888641E0,2.933005709E0,2.298477292E-1,1.903448999E-1,4.220501184E-1
2.944192708E0,8.779243469E-1,-8.386310577E0,-8.852590942E-1,2.942950709E0,2.129923850E-1,2.243767679E-1,4.095043242E-1
2.954137709E0,1.258133698E0,-8.747060394E0,-8.652008057E-2,2.952896708E0,2.840103805E-1,2.428172976E-1,4.063801765E-1
2.964083708E0,2.001637573E0,-9.521100769E0,-1.172062683E-1,2.962841708E0,3.912978470E-1,7.970803976E-2,3.754511178E-1
2.974028708E0,3.342698822E0,-1.021161484E1,-9.723779297E-1,2.972786709E0,4.774478972E-1,-3.303370178E-1,2.852780819E-1
2.983973708E0,4.617447968E0,-1.089688980E1,-1.304537201E0,2.982732708E0,5.484303236E-1,-6.701019406E-1,1.605654508E-1
2.993919709E0,5.448070679E0,-1.183139648E1,-1.395547943E0,2.992677708E0,6.071296334E-1,-8.016575575E-1,-2.674266510E-2
3.003864708E0,5.231321411E0,-1.283401154E1,-1.287023621E0,3.002622708E0,6.688332558E-1,-6.813251972E-1,-2.601811588E-1
3.013809708E0,3.735931091E0,-1.351719086E1,-1.615590363E0,3.012568709E0,7.094709873E-1,-5.191059113E-1,-4.643601477E-1
3.023755708E0,1.517394562E0,-1.364921631E1,-2.254312134E0,3.022513708E0,6.226915121E-1,-3.734730184E-1,-5.417348742E-1
3.033700709E0,-3.561094666E-1,-1.394260620E1,-1.832189941E0,3.032458708E0,5.676572323E-1,-3.136512339E-1,-5.171187520E-1
3.043645708E0,-1.610051880E0,-1.455558151E1,-1.707798615E0,3.042404708E0,6.501983404E-1,-4.240742028E-1,-4.510004818E-1
3.053590708E0,-2.466870117E0,-1.455857529E1,-2.928360443E0,3.052349709E0,4.807698727E-1,-4.101930261E-1,-3.359463215E-1
3.063536708E0,-2.070195007E0,-1.400667297E1,-3.554208984E0,3.062294708E0,1.160917729E-1,-3.655419350E-1,-2.323828042E-1
3.073481709E0,-7.453001404E-1,-1.370834335E1,-2.510130157E0,3.072239708E0,-1.767874956E-1,-4.162732959E-1,-2.062766403E-1
3.083426708E0,2.883004761E-1,-1.371313339E1,-3.703298950E-1,3.082185708E0,-4.068266451E-1,-4.752191305E-1,-2.844651043E-1
3.093372708E0,4.653822327E-1,-1.291514282E1,1.026565247E0,3.092130709E0,-6.180153489E-1,-6.863982081E-1,-4.347856343E-1
3.103317708E0,1.294807434E-1,-1.199395844E1,2.064656525E0,3.102075709E0,-7.300497293E-1,-1.056416273E0,-5.478085876E-1
3.113262709E0,-5.252577209E-1,-1.089389603E1,2.507286072E0,3.112021708E0,-7.058008313E-1,-1.360845685E0,-6.553094387E-1
3.123208708E0,-8.446934509E-1,-9.688003693E0,7.737409973E-1,3.121966708E0,-9.283297658E-1,-1.525946856E0,-8.073713779E-1
3.133153708E0,-5.822891235E-1,-9.860744476E0,-2.938838654E0,3.131911709E0,-1.624922395E0,-1.449290633E0,-1.048891783E0
3.143098708E0,-4.059558105E-1,-1.218690720E1,-4.430636444E0,3.141857708E0,-2.295777321E0,-1.214491367E0,-1.388838530E0
3.153044709E0,-1.277293854E0,-1.429302750E1,-1.537602539E0,3.151802708E0,-2.600039721E0,-8.057036996E-1,-1.643272161E0
3.162989708E0,-2.947819977E0,-1.559337341E1,7.912545776E-1,3.161747708E0,-2.673726559E0,-3.564164937E-1,-1.806449771E0
3.172934708E0,-4.640799408E0,-1.607851456E1,3.077001343E0,3.171693709E0,-2.438491821E0,1.198592559E-1,-1.827545404E0
3.182879708E0,-6.852599945E0,-1.597058899E1,5.259462891E0,3.181638708E0,-1.969512224E0,7.759125233E-1,-1.624515653E0
3.192825709E0,-8.834328918E0,-1.560774353E1,5.590125275E0,3.191583708E0,-1.411433697E0,1.270962238E0,-1.265722632E0
3.202770708E0,-9.753866730E0,-1.412417862E1,3.933370514E0,3.201528708E0,-9.709612131E-1,1.302608967E0,-9.341177940E-1
3.212715708E0,-9.224268036E0,-1.191028244E1,1.308578796E0,3.211474709E0,-7.617132068E-1,9.644525647E-1,-6.548864245E-1
3.222661708E0,-7.827073517E0,-1.030412247E1,-1.011895752E0,3.221419708E0,-7.178641558E-1,5.669497848E-1,-3.285457492E-1
3.232606709E0,-5.811814270E0,-9.411828003E0,-3.109633484E0,3.231364708E0,-8.400753140E-1,3.349586129E-1,-2.757711336E-2
3.242551708E0,-3.726800079E0,-9.265133057E0,-5.021308136E0,3.241310708E0,-1.117475748E0,1.987874359E-1,2.451032400E-1
3.252497708E0,-1.069525909E0,-8.706345062E0,-5.605094147E0,3.251255709E0,-1.441319108E0,-2.937968355E-3,3.264076710E-1
3.262442708E0,2.859054565E0,-8.130043488E0,-4.742138672E0,3.261200708E0,-1.747592688E0,-1.185093522E-1,1.587486565E-1
3.272387709E0,4.577930145E0,-8.251441040E0,-3.317251740E0,3.271146708E0,-1.861029863E0,-1.990449429E-1,-6.069688499E-2
3.282333708E0,5.007536774E0,-8.347840576E0,-1.054407349E0,3.281091708E0,-1.761321425E0,-1.790557206E-1,-2.717491984E-1
3.292278583E0,3.921994171E0,-8.206983490E0,-1.416953430E0,3.291036709E0,-1.676813483E0,-3.088158369E-1,-2.974132895E-1
3.302223583E0,3.342998199E0,-6.880591736E0,-2.246678009E0,3.300982584E0,-1.638377786E0,-7.406131625E-1,-3.052525818E-1
3.312169584E0,3.149899750E0,-6.070476379E0,-1.240470428E0,3.310927583E0,-1.442121148E0,-1.093230247E0,-3.363859951E-1
3.322114583E0,3.276985474E0,-5.614973602E0,-2.710862732E-1,3.320872583E0,-1.207876682E0,-1.308844566E0,-4.329650998E-1
3.332059583E0,2.767894135E0,-5.522915039E0,-9.372010803E-1,3.330817583E0,-1.052666306E0,-1.413534164E0,-5.065170527E-1
3.342004583E0,1.694925385E0,-5.293891296E0,-7.204518127E-1,3.340763584E0,-8.807070851E-1,-1.284339786E0,-5.373177528E-1
3.351950584E0,1.063837738E0,-4.775968323E0,-7.090754700E-1,3.350708583E0,-6.840124130E-1,-1.089052081E0,-5.622851849E-1
3.361895583E0,3.873944092E-1,-4.561763763E0,-9.909393311E-1,3.360653583E0,-4.869882762E-1,-9.440168738E-1,-5.559636950E-1
3.371840583E0,-2.585124207E-1,-4.421206055E0,-1.318458252E0,3.370599583E0,-3.089008033E-1,-9.116604924E-1,-5.528776646E-1
3.381786583E0,-5.468128967E-1,-4.168381805E0,-1.550924835E0,3.380544584E0,-1.271001250E-1,-1.002417445E0,-5.566805005E-1
3.391731584E0,-6.258485413E-1,-4.020489349E0,-1.535207520E0,3.390489583E0,4.189476743E-2,-1.142228842E0,-5.528088212E-1
3.401676583E0,-6.592291260E-1,-3.945345612E0,-1.124461670E0,3.400435583E0,2.087618858E-1,-1.243804812E0,-5.051971078E-1
3.411622583E0,-5.474116516E-1,-4.007017365E0,-7.677534485E-1,3.410380583E0,3.924608827E-1,-1.285952568E0,-4.441870451E-1
3.421567583E0,-9.160949707E-2,-4.020040283E0,-9.056167603E-1,3.420325584E0,5.825462937E-1,-1.265155077E0,-3.975516260E-1
3.431512584E0,3.141966248E-1,-4.320615234E0,-1.455872498E0,3.430271583E0,7.363798022E-1,-1.187935352E0,-3.777653873E-1
3.441457583E0,3.266207886E-1,-4.965324554E0,-2.104773102E0,3.440216583E0,8.258491158E-1,-1.065077186E0,-3.430835903E-1
3.451403583E0,-4.790039062E-3,-5.746849365E0,-2.274819489E0,3.450161583E0,9.204472303E-1,-8.626037240E-1,-2.980082631E-1
3.461348583E0,-2.758763123E-1,-6.366111603E0,-2.354753265E0,3.460106584E0,1.015558124E0,-6.266921759E-1,-2.605917454E-1
3.471293584E0,-5.080435181E-1,-6.934329987E0,-3.601211243E0,3.470052583E0,1.016206861E0,-6.643822789E-1,-2.366797328E-1
3.481239583E0,-9.809101868E-1,-8.561147003E0,-5.268144836E0,3.479997583E0,8.303012848E-1,-9.711289406E-1,-1.608473659E-1
3.491184583E0,-9.777667236E-1,-1.025008484E1,-5.392236786E0,3.489942583E0,6.736642718E-1,-1.090095997E0,-6.021530181E-2
3.501129583E0,-4.035607910E-1,-1.153426437E1,-5.623805237E0,3.499888584E0,6.054019928E-1,-1.055025816E0,5.057052895E-2
3.511075584E0,5.553451538E-2,-1.280796570E1,-6.843319244E0,3.509833583E0,3.691028655E-1,-9.807989597E-1,7.543033361E-2
3.521020583E0,-1.447340240E0,-1.575548630E1,-6.498436432E0,3.519778583E0,5.251476541E-2,-7.126008868E-1,6.844050437E-2
3.530965583E0,-3.496578827E0,-1.800186493E1,-5.926775208E0,3.529724583E0,-1.655182242E-1,-6.384254694E-1,1.598183662E-1
3.540910583E0,-3.334615631E0,-1.622356293E1,-7.009473724E0,3.539669584E0,-4.113855362E-1,-5.310716033E-1,1.934091747E-1
3.550856584E0,-1.374890900E0,-1.319191727E1,-9.040300598E0,3.549614583E0,-7.168030143E-1,-2.820205390E-1,3.996421024E-2
3.560801583E0,1.158740387E0,-1.110121490E1,-9.505233765E0,3.559559583E0,-7.884529233E-1,2.338559180E-1,-2.499667555E-1
3.570746583E0,1.882784729E0,-9.841284943E0,-9.019643555E0,3.569505583E0,-8.842753172E-1,8.159752488E-1,-5.304884315E-1
3.580692583E0,-8.068222046E-2,-1.106379272E1,-7.803572388E0,3.579450584E0,-1.170729518E0,1.175986648E0,-6.729201078E-1
3.590637584E0,-1.781445465E0,-1.321616684E1,-6.813830566E0,3.589395583E0,-1.490582585E0,1.293136120E0,-7.154196501E-1
3.600582583E0,-1.472188568E0,-1.557062073E1,-5.278772736E0,3.599341583E0,-1.507791519E0,1.254168272E0,-6.937761903E-1
3.610528583E0,-6.876699829E-1,-1.876872025E1,-2.582729187E0,3.609286583E0,-1.238925338E0,1.146564007E0,-5.702412128E-1
3.620473583E0,-1.184636536E0,-2.112482071E1,-5.343887329E-2,3.619231584E0,-7.963514328E-1,1.056791663E0,-2.152023762E-1
3.630418584E0,-2.946622467E0,-1.925655579E1,-2.642005920E-1,3.629176583E0,-3.861167729E-1,8.009452820E-1,2.348063290E-1
3.640363583E0,-1.799258423E0,-1.115465378E1,-1.238225098E0,3.639122583E0,2.710494027E-2,6.331962943E-1,3.745841086E-1
3.650309583E0,-2.055076447E0,-5.999673615E0,-6.541397095E-2,3.649067583E0,3.738972247E-1,8.911108971E-1,6.423889399E-1
3.660254583E0,-2.611768799E0,-4.024830322E0,7.824229431E-1,3.659012584E0,4.852619171E-1,1.280238271E0,8.432587385E-1
3.670199584E0,-2.229912872E0,-3.553909607E0,1.176553345E-1,3.668958583E0,3.887329698E-1,1.256883144E0,8.439133167E-1
3.680145583E0,-1.829495544E0,-4.889282684E0,-6.427633667E-1,3.678903583E0,3.255670965E-1,9.126473069E-1,8.891837001E-1
3.690090583E0,-4.558021545E-1,-6.636150055E0,1.237925720E-1,3.688848583E0,3.683297634E-1,6.544261575E-1,1.039920449E0
3.700035583E0,1.355730743E0,-7.967032471E0,1.491947479E0,3.698794584E0,5.249512792E-1,6.405743957E-1,1.207827330E0
3.709980584E0,1.860181732E0,-9.346414032E0,2.327509918E0,3.708739583E0,7.646927834E-1,6.453190446E-1,1.363642812E0
3.719926583E0,1.745520172E0,-1.056802368E1,2.008074188E0,3.718684583E0,1.032542944E0,2.929677367E-1,1.446753860E0
3.729871583E0,2.019749908E0,-1.128667923E1,1.629062347E0,3.728629583E0,1.267169595E0,-1.904143840E-1,1.414885879E0
3.739816583E0,3.095413055E0,-1.176523407E1,1.401685181E0,3.738575584E0,1.480607390E0,-5.004183650E-1,1.232032061E0
3.749762584E0,4.177662506E0,-1.203018311E1,1.476379852E0,3.748520583E0,1.711103797E0,-4.260075390E-1,9.035578370E-1
3.759707583E0,4.194427643E0,-1.192360474E1,1.425335999E0,3.758465583E0,1.943529606E0,-2.384817414E-2,5.179119110E-1
3.769652583E0,3.406017151E0,-1.093086914E1,-3.502716064E-2,3.768411583E0,2.034541607E0,2.994785011E-1,2.285290658E-1
3.779598583E0,2.267784119E0,-9.243278503E0,-2.266287231E0,3.778356584E0,1.943205833E0,5.480150580E-1,-6.300910842E-3
3.789543584E0,6.592291260E-1,-8.328381042E0,-4.032314758E0,3.788301583E0,1.716345072E0,8.063467741E-1,-1.655369103E-1
3.799488583E0,-5.248086548E-1,-7.793992310E0,-4.686155090E0,3.798247583E0,1.406968594E0,1.085662246E0,-2.446967959E-1
3.809433583E0,-1.109792175E0,-7.022646332E0,-4.561165009E0,3.808192583E0,1.062018752E0,1.315318942E0,-2.474209517E-1
3.819379583E0,-1.743424530E0,-6.474486237E0,-3.627107391E0,3.818137584E0,7.648375034E-1,1.545932055E0,-1.667530835E-1
3.829324584E0,-2.255060577E0,-6.157295837E0,-2.474803619E0,3.828082583E0,5.631546974E-1,1.624829888E0,-1.145005692E-2
3.839269583E0,-2.313289490E0,-6.005511475E0,-1.317410431E0,3.838028583E0,4.744420648E-1,1.476737499E0,1.600712687E-1
3.849215583E0,-1.908381500E0,-5.890101471E0,-2.441423035E-1,3.847973583E0,4.956474900E-1,1.221336961E0,2.855354548E-1
3.859160583E0,-1.332678680E0,-6.078559570E0,5.047503662E-1,3.857918584E0,5.839234591E-1,9.786072373E-1,3.618450463E-1
3.869105584E0,-5.301974487E-1,-6.462361450E0,7.298822021E-1,3.867864583E0,7.202847600E-1,8.246514797E-1,3.479673266E-1
3.879050583E0,9.205856323E-2,-6.990014191E0,5.755531311E-1,3.877809583E0,8.413904309E-1,7.510467768E-1,3.000470102E-1
3.888996583E0,2.725831604E-1,-7.556735687E0,1.652563477E-1,3.887754583E0,9.072602391E-1,7.806680799E-1,2.599994540E-1
3.898941583E0,4.468208313E-1,-7.898624725E0,-4.561015320E-1,3.897699584E0,9.274776578E-1,8.410999179E-1,2.325944901E-1
3.908886584E0,5.366340637E-1,-8.300988007E0,-8.369096375E-1,3.907645583E0,9.144222736E-1,9.597088695E-1,2.265877277E-1
3.918832583E0,5.659730530E-1,-8.831035767E0,-1.061442719E0,3.917590583E0,8.588652015E-1,1.095074534E0,2.491827160E-1
3.928777583E0,6.336323547E-1,-9.037306824E0,-1.260678406E0,3.927535583E0,7.770565748E-1,1.208080173E0,3.068260550E-1
3.938722583E0,4.846920776E-1,-9.121731262E0,-1.153650970E0,3.937481584E0,7.110405564E-1,1.295041561E0,4.136476517E-1
3.948668584E0,2.881507874E-1,-9.251810760E0,-1.202449493E0,3.947426583E0,6.330645084E-1,1.287421227E0,5.646073222E-1
3.958613583E0,3.035687256E-1,-9.107510834E0,-1.513652344E0,3.957371583E0,5.687040687E-1,1.183362246E0,7.261398435E-1
3.968558583E0,6.228547668E-1,-8.602760468E0,-1.955683136E0,3.967316583E0,4.841034114E-1,1.052212000E0,8.708341718E-1
3.978503583E0,1.150507507E0,-8.258177032E0,-2.548300781E0,3.977262584E0,3.281612694E-1,8.639747500E-1,9.658430815E-1
3.988449584E0,1.822160797E0,-8.321046295E0,-2.932102661E0,3.987207583E0,1.498032361E-1,6.035125852E-1,1.010016084E0
3.998394583E0,2.661315765E0,-8.582851868E0,-2.886746979E0,3.997152583E0,9.383237921E-3,2.787980735E-1,1.019861341E0
4.008339583E0,3.630400543E0,-8.426876221E0,-1.933678894E0,4.007098584E0,-2.860702015E-2,9.375736117E-2,9.219433665E-1
4.018285583E0,4.385430450E0,-8.398135986E0,-6.921606445E-1,4.017043584E0,1.408827901E-1,-4.057012871E-2,7.172674537E-1
4.028230584E0,4.578379211E0,-8.319699097E0,-6.403683472E-1,4.026988583E0,3.481928408E-1,-2.441096753E-1,4.614447057E-1
4.038175583E0,3.733087006E0,-7.972271576E0,-9.294172668E-1,4.036933583E0,4.332175553E-1,-2.227056175E-1,2.796061337E-1
4.048120583E0,2.049687653E0,-7.880362701E0,-6.848258972E-1,4.046879584E0,4.818692505E-1,-1.670237184E-1,2.335209250E-1
4.058066583E0,1.089135132E0,-8.289312286E0,-5.860313416E-1,4.056824584E0,5.635550022E-1,-2.219123244E-1,2.473380268E-1
4.068011584E0,1.159638519E0,-9.168284454E0,-1.441502380E-1,4.066769583E0,6.760448217E-1,-3.643421829E-1,2.709839642E-1
4.077956583E0,1.908381500E0,-1.015907410E1,-3.300636292E-1,4.076715583E0,7.965791821E-1,-6.359080076E-1,2.880440950E-1
4.087902583E0,2.970872040E0,-1.092188782E1,-7.473957825E-1,4.086660584E0,8.992837071E-1,-8.713580966E-1,2.715191841E-1
4.097847583E0,3.905528412E0,-1.181537979E1,-1.149010620E0,4.096605584E0,9.415874481E-1,-9.993249178E-1,1.713442653E-1
4.107792584E0,4.380041656E0,-1.290885590E1,-1.200204163E0,4.106550583E0,9.512823820E-1,-1.041630268E0,-1.778091490E-2
4.117737583E0,4.501738586E0,-1.403047348E1,-1.064286804E0,4.116496583E0,9.699228406E-1,-9.889041185E-1,-2.964096665E-1
4.127683583E0,3.702700195E0,-1.532333496E1,-1.542542267E0,4.126441584E0,8.851605654E-1,-8.447461128E-1,-5.448019505E-1
4.137628583E0,2.073488159E0,-1.608869339E1,-2.604733429E0,4.136386584E0,5.897198319E-1,-6.643224359E-1,-6.858719587E-1
4.147573584E0,3.873944092E-1,-1.594319595E1,-3.054098969E0,4.146332583E0,2.257080525E-1,-6.414384246E-1,-8.067360520E-1
4.157518583E0,-1.079255676E0,-1.574740311E1,-2.890339508E0,4.156277583E0,-7.671231031E-2,-9.544390440E-1,-8.427398801E-1
4.167464583E0,-1.697470093E0,-1.610216537E1,-1.029858398E0,4.166222584E0,-2.854902744E-1,-1.208464861E0,-8.190497160E-1
4.177409583E0,-1.291663971E0,-1.608450211E1,1.506616974E0,4.176167584E0,-4.569360614E-1,-1.272850513E0,-8.291770220E-1
4.187354584E0,-1.178349609E0,-1.515194138E1,2.683769073E0,4.186113583E0,-5.224484801E-1,-1.257683516E0,-9.262428880E-1
4.197300583E0,-1.894310760E0,-1.407597885E1,2.609224091E0,4.196058583E0,-6.357374787E-1,-1.138701916E0,-1.096301198E0
4.207245583E0,-3.228636017E0,-1.272159531E1,1.590592346E0,4.206003584E0,-8.682529926E-1,-9.107172489E-1,-1.250840425E0
4.217190583E0,-4.450994110E0,-1.187929688E1,-1.358874207E0,4.215949583E0,-1.384102941E0,-6.790585518E-1,-1.369449615E0
4.227135584E0,-6.473737793E0,-1.155297546E1,-4.786296844E0,4.225894583E0,-2.093772650E0,-3.464028835E-1,-1.347628713E0
4.237081583E0,-8.454568634E0,-1.241937378E1,-3.956572266E0,4.235839583E0,-2.451870918E0,2.115376443E-1,-1.279856205E0
4.247026583E0,-8.832682343E0,-1.391835663E1,-2.065704346E-2,4.245784584E0,-2.537635565E0,9.486182928E-1,-1.204095960E0
4.256971583E0,-8.685089264E0,-1.514490601E1,2.408341827E0,4.255730583E0,-2.534754276E0,1.599175453E0,-1.062830091E0
4.266917584E0,-8.605604553E0,-1.525447815E1,3.348985748E0,4.265675583E0,-2.333816051E0,1.912121534E0,-7.581210136E-1
4.276862583E0,-7.749385071E0,-1.371103775E1,3.539838867E0,4.275620583E0,-1.942824244E0,1.902911544E0,-4.001483321E-1
4.286807583E0,-6.096522217E0,-1.163021484E1,3.144361267E0,4.285566584E0,-1.446022511E0,1.578551888E0,-5.670760572E-2
4.296752292E0,-4.007915497E0,-9.847571869E0,2.218087463E0,4.295511292E0,-9.618767500E-1,9.202546477E-1,1.957567036E-1
4.306698292E0,-1.356778564E0,-9.013356628E0,1.128503265E0,4.305456292E0,-7.046803236E-1,5.435020328E-1,3.683385849E-1
4.316643292E0,6.164181519E-1,-9.012757874E0,-9.972262573E-1,4.315401292E0,-6.469382048E-1,3.974066675E-1,4.687000811E-1
4.326588292E0,3.240311737E0,-9.236093445E0,-3.419189758E0,4.325347292E0,-8.261237144E-1,4.478133917E-1,3.539162278E-1
4.336534292E0,4.862189026E0,-9.823621674E0,-5.767656097E0,4.335292292E0,-1.194528341E0,3.617867231E-1,9.413260967E-2
4.346479292E0,4.714296570E0,-1.092862381E1,-6.339916077E0,4.345237292E0,-1.527136683E0,2.945917249E-1,-1.081171632E-1
4.356424292E0,3.743116150E0,-1.056203613E1,-4.566254425E0,4.355182292E0,-1.666769624E0,3.478680849E-1,-2.060376853E-1
4.366369292E0,2.915038147E0,-9.408834229E0,-2.848127289E0,4.365128292E0,-1.655229092E0,3.558841944E-1,-2.302016169E-1
4.376315292E0,2.247725830E0,-7.842491455E0,-2.311792603E0,4.375073292E0,-1.660362124E0,3.872599825E-2,-2.842168212E-1
4.386260292E0,2.462379456E0,-6.362519073E0,-1.758543091E0,4.385018292E0,-1.582987905E0,-3.862252831E-1,-3.646429777E-1
4.396205292E0,2.419718170E0,-5.770799561E0,-6.767427063E-1,4.394964292E0,-1.445436716E0,-6.422157884E-1,-4.326153696E-1
4.406150292E0,2.268382874E0,-5.254672852E0,-5.077441406E-1,4.404909292E0,-1.342801452E0,-7.962615490E-1,-4.689967930E-1
4.416096292E0,1.959724731E0,-4.781357117E0,-7.327262878E-1,4.414854292E0,-1.254607320E0,-8.835440874E-1,-4.737026095E-1
4.426041292E0,1.672472076E0,-4.208348694E0,-7.246430969E-1,4.424799292E0,-1.140801072E0,-9.576369524E-1,-4.607468545E-1
4.435986292E0,1.372795258E0,-3.682941284E0,-5.661227417E-1,4.434745292E0,-1.025370598E0,-9.624812007E-1,-4.765582085E-1
4.445932292E0,1.093775482E0,-3.400778046E0,-3.376977539E-1,4.444690292E0,-8.626485467E-1,-9.394597411E-1,-4.612607658E-1
4.455877292E0,6.391708374E-1,-3.210673370E0,-5.722599792E-1,4.454635292E0,-6.535428762E-1,-9.723758698E-1,-4.065193236E-1
4.465822292E0,3.567082214E-1,-3.036735077E0,-8.069718933E-1,4.464580292E0,-4.136271775E-1,-1.137260675E0,-3.720995486E-1
4.475767292E0,2.228865051E-1,-3.000061340E0,-6.364764404E-1,4.474526292E0,-1.335303187E-1,-1.337624550E0,-3.470511734E-1
4.485713292E0,4.610412598E-2,-3.116219788E0,-2.351609802E-1,4.484471292E0,1.864721924E-1,-1.463660479E0,-3.214209080E-1
4.495658292E0,-9.160949707E-2,-3.345842285E0,3.323089600E-2,4.494416292E0,5.386372805E-1,-1.422510147E0,-2.942967117E-1
4.505603292E0,-2.231858826E-1,-3.784430237E0,-3.109034729E-1,4.504362292E0,8.384575844E-1,-1.285246253E0,-2.632152140E-1
4.515548292E0,-5.183720398E-1,-4.570445709E0,-1.375339966E0,4.514307292E0,1.019280910E0,-1.135755777E0,-2.449668050E-1
4.525494292E0,-7.015910339E-1,-5.265151062E0,-2.567760315E0,4.524252292E0,1.098587275E0,-9.548717141E-1,-2.666489184E-1
4.535439292E0,-8.649014282E-1,-6.177803192E0,-3.248245239E0,4.534197292E0,1.144236445E0,-6.851019859E-1,-2.527279854E-1
4.545384292E0,-1.472487946E0,-7.887847137E0,-3.376079407E0,4.544143292E0,1.184583545E0,-3.876056075E-1,-1.636031717E-1
4.555330292E0,-1.099463654E0,-8.681796112E0,-4.274361420E0,4.554088292E0,1.151850700E0,-3.679448664E-1,-1.683898866E-1
4.565275292E0,-5.176235962E-1,-9.220825195E0,-6.743626556E0,4.564033292E0,9.475935102E-1,-7.541402578E-1,-2.104081810E-1
4.575220292E0,-5.463638306E-1,-1.034858002E1,-8.048912201E0,4.573978292E0,6.075591445E-1,-8.478453755E-1,-1.450585872E-1
4.585165292E0,-7.306306458E-1,-1.172766220E1,-8.726253662E0,4.583924292E0,2.306632549E-1,-6.559134722E-1,-4.926734790E-2
4.595111292E0,-1.444645844E0,-1.369517075E1,-8.998687134E0,4.593869292E0,-1.132367626E-1,-4.665396512E-1,3.564860299E-2
4.605056292E0,-3.244053955E0,-1.626382919E1,-8.034991150E0,4.603814292E0,-3.963941634E-1,-3.854389489E-1,1.851009429E-1
4.615001292E0,-4.574936371E0,-1.713022751E1,-6.349047089E0,4.613760292E0,-5.269121528E-1,-3.778977096E-1,3.656026423E-1
4.624946292E0,-2.925666046E0,-1.511496826E1,-6.468798065E0,4.623705292E0,-5.859565735E-1,-3.590926230E-1,3.396501541E-1
4.634892292E0,-3.547622681E-1,-1.272668472E1,-8.236771545E0,4.633650292E0,-7.250023484E-1,-1.689914316E-1,1.830575019E-1
4.644837292E0,1.744622040E0,-1.020353165E1,-9.552535400E0,4.643595292E0,-7.801098228E-1,2.779211104E-1,3.662785515E-2
4.654782292E0,3.336262207E0,-7.402256927E0,-9.140741730E0,4.653541292E0,-6.526904106E-1,8.821637034E-1,3.057218157E-3
4.664728292E0,4.135899353E0,-5.654192047E0,-9.113947449E0,4.663486292E0,-7.545190454E-1,1.008327246E0,-8.918269724E-2
4.674673292E0,4.008663940E0,-6.529272308E0,-9.296567688E0,4.673431292E0,-1.188274026E0,5.975798965E-1,-3.714420795E-1
4.684618292E0,2.376009064E0,-8.221503296E0,-6.380182343E0,4.683376292E0,-1.246996760E0,2.654807568E-1,-4.757538438E-1
4.694563292E0,2.389331360E0,-1.055874298E1,-3.823349304E0,4.693322292E0,-9.320583344E-1,-1.141531989E-1,-5.316849351E-1
4.704509292E0,2.399061127E0,-1.528995438E1,-2.611170044E0,4.703267292E0,-5.884447694E-1,-3.274202347E-1,-4.906730652E-1
4.714454292E0,8.629554749E-1,-2.051019882E1,-2.396516418E-1,4.713212292E0,-2.205663621E-1,-1.807972640E-1,-3.985461593E-1
4.724399292E0,-5.643264771E-1,-2.174108917E1,1.342707825E0,4.723158292E0,1.622681022E-1,6.929859519E-2,-3.103097677E-1
4.734344292E0,-2.008223877E0,-1.715911743E1,1.179846497E0,4.733103292E0,3.972273469E-1,1.516377553E-2,-2.458583117E-1
4.744290292E0,-3.271297302E0,-1.259959900E1,1.790277100E0,4.743048292E0,6.668165326E-1,-1.329500526E-1,-9.481073171E-2
4.754235292E0,-4.745132446E0,-1.062355820E1,9.066645813E-1,4.752993292E0,8.164449334E-1,-2.101302594E-1,2.280602306E-1
4.764180292E0,-3.859124908E0,-8.928333435E0,-1.212478638E-1,4.762939292E0,8.169203401E-1,-1.907927692E-1,5.468264818E-1
4.774125292E0,-1.395847321E0,-7.915988617E0,4.532574463E-1,4.772884292E0,8.478893638E-1,-3.984796628E-2,7.841542959E-1
4.784071292E0,1.018182678E0,-7.911947021E0,1.213975525E0,4.782829292E0,8.646150827E-1,1.451871395E-1,9.244544506E-1
4.794016292E0,2.210453339E0,-8.758137360E0,1.220262451E0,4.792774292E0,8.759437799E-1,2.457547933E-1,9.886710644E-1
4.803961292E0,2.546504517E0,-9.298663330E0,4.323010254E-1,4.802720292E0,8.324863315E-1,4.373591393E-2,1.074882865E0
4.813907292E0,3.111429749E0,-9.025930481E0,-3.826043701E-1,4.812665292E0,7.683749199E-1,-5.391201377E-1,1.112091422E0
4.823852292E0,3.561992798E0,-8.820108490E0,-8.262817383E-2,4.822610292E0,8.039606214E-1,-1.115812302E0,1.087296844E0
4.833797292E0,3.473227386E0,-9.035061493E0,5.837860107E-1,4.832555292E0,9.573683739E-1,-1.550385237E0,1.028288245E0
4.843742292E0,3.040776672E0,-9.477840729E0,1.225800934E0,4.842501292E0,1.178912759E0,-1.609548330E0,9.029012918E-1
4.853688292E0,1.953587494E0,-9.727671204E0,1.530118103E0,4.852446292E0,1.386237741E0,-1.348141909E0,7.145458460E-1
4.863633292E0,1.275647278E0,-9.228010254E0,1.345102844E0,4.862391292E0,1.566699147E0,-1.011819005E0,4.156730771E-1
4.873578292E0,7.845185852E-1,-8.472231903E0,8.686436462E-1,4.872336292E0,1.698019981E0,-5.221206546E-1,2.001878992E-2
4.883523292E0,-2.993774414E-1,-7.997718658E0,-1.082249451E-1,4.882282292E0,1.746821642E0,6.138832867E-2,-3.792119622E-1
4.893469292E0,-1.494941254E0,-7.484735413E0,-1.240021362E0,4.892227292E0,1.705326319E0,4.533462226E-1,-6.391299367E-1
4.903414292E0,-3.275338898E0,-7.131919098E0,-1.391805725E0,4.902172292E0,1.622514248E0,8.140923977E-1,-6.814885736E-1
4.913359292E0,-4.610562286E0,-6.842121735E0,-9.758207703E-1,4.912118292E0,1.537942648E0,1.223459959E0,-5.691421628E-1
4.923304292E0,-4.905598755E0,-6.289021912E0,-7.517367554E-1,4.922063292E0,1.433696985E0,1.575268865E0,-3.769490123E-1
4.933250292E0,-4.906646576E0,-5.793552246E0,-7.589218140E-1,4.932008292E0,1.296013117E0,1.723273396E0,-1.459549814E-1
4.943195292E0,-4.428690491E0,-5.370082855E0,-8.702902222E-1,4.941953292E0,1.123320699E0,1.637922287E0,5.298128724E-2
4.953140292E0,-3.196602631E0,-5.429060211E0,-1.022972717E0,4.951899292E0,9.400502443E-1,1.488801718E0,1.531336308E-1
4.963085292E0,-1.334624634E0,-6.046825562E0,-8.860075378E-1,4.961844292E0,7.875972986E-1,1.418406129E0,1.584775299E-1
4.973031292E0,3.376977539E-1,-6.926995239E0,-4.340972900E-3,4.971789292E0,7.195869684E-1,1.507806063E0,1.144240275E-1
4.982976292E0,1.296753387E0,-7.897726593E0,6.777905273E-1,4.981734292E0,7.373545170E-1,1.608870029E0,6.481146812E-2
4.992921292E0,1.496138763E0,-8.834628296E0,1.000818787E0,4.991680292E0,8.399079442E-1,1.572254419E0,2.775456943E-2
5.002867292E0,1.245410156E0,-9.363777924E0,7.649093628E-1,5.001625292E0,9.372872114E-1,1.343073964E0,5.803843960E-2
5.012812292E0,7.433541870E-1,-9.617350616E0,-2.993774414E-4,5.011570292E0,9.832403660E-1,1.161876440E0,1.689520329E-1
5.022757292E0,2.601589966E-1,-9.710606689E0,-7.926017761E-1,5.021515292E0,9.781025648E-1,1.039723158E0,3.635561466E-1
5.032702292E0,5.254074097E-2,-9.699978790E0,-1.426533508E0,5.031461292E0,9.311459064E-1,8.946857452E-1,5.875422359E-1
5.042648292E0,2.239343262E-1,-9.634564819E0,-1.890119476E0,5.041406292E0,8.281300664E-1,7.475583553E-1,7.849983573E-1
5.052593292E0,6.062393188E-1,-9.540859680E0,-2.285148010E0,5.051351292E0,6.542727947E-1,6.734590530E-1,9.514149427E-1
5.062538292E0,1.013991394E0,-9.642797699E0,-2.362088013E0,5.061296292E0,4.489657283E-1,7.427212000E-1,1.088099718E0
5.072483292E0,1.572480011E0,-9.874964905E0,-2.023342438E0,5.071242292E0,2.710665166E-1,8.630259633E-1,1.179274440E0
5.082429292E0,2.346670074E0,-9.859846344E0,-1.818568268E0,5.081187292E0,1.174335629E-1,8.972603679E-1,1.189012766E0
5.092374292E0,3.172652435E0,-9.557026062E0,-1.974843292E0,5.091132292E0,-3.313722089E-2,8.254914880E-1,1.074359536E0
5.102319292E0,3.844006348E0,-9.164242859E0,-2.134860535E0,5.101077292E0,-1.570754200E-1,6.630554199E-1,8.773380518E-1
5.112264292E0,4.108656006E0,-8.941506042E0,-1.639839935E0,5.111023292E0,-1.264346838E-1,4.932727814E-1,6.497679949E-1
5.122210292E0,4.150568848E0,-8.552614746E0,-1.091829529E0,5.120968292E0,-1.102323295E-3,3.725202680E-1,4.222027659E-1
5.132155292E0,3.422632599E0,-7.840246124E0,-8.481362915E-1,5.130913292E0,1.377519518E-1,3.638833165E-1,2.766927779E-1
5.142100292E0,2.192041626E0,-7.514373779E0,-7.921527100E-1,5.140859292E0,2.300126404E-1,3.517883122E-1,2.682119608E-1
5.152045292E0,1.771865387E0,-7.815397797E0,-7.285350037E-1,5.150804292E0,3.476444781E-1,2.036329955E-1,3.071914911E-1
5.161991292E0,2.640359344E0,-8.687035217E0,-7.226971436E-1,5.160749292E0,5.217829943E-1,-2.283519804E-1,3.064711094E-1
5.171936292E0,4.271517334E0,-9.860744476E0,-6.372248840E-1,5.170694292E0,7.051852942E-1,-6.566929817E-1,2.316103578E-1
5.181881292E0,5.570665741E0,-1.094434113E1,-5.307962036E-1,5.180640292E0,8.661917448E-1,-8.124913573E-1,9.304743260E-2
5.191826292E0,5.759872284E0,-1.194815369E1,-1.134191437E0,5.190585292E0,9.248132706E-1,-7.774483562E-1,-8.623792231E-2
5.201772292E0,4.498894501E0,-1.268507126E1,-2.095791779E0,5.200530292E0,8.552743793E-1,-6.586250663E-1,-2.311530262E-1
5.211717292E0,2.585872650E0,-1.320119797E1,-2.787802734E0,5.210475292E0,7.048163414E-1,-5.285143852E-1,-3.150265217E-1
5.221662292E0,1.288520508E0,-1.386731277E1,-2.852767639E0,5.220421292E0,4.523582757E-1,-4.003385603E-1,-3.572456241E-1
5.231607292E0,8.623567200E-1,-1.485286331E1,-2.048041077E0,5.230366292E0,3.670631051E-1,-3.575479686E-1,-4.077870846E-1
5.241553292E0,-3.038681030E-2,-1.563154404E1,-1.858984222E0,5.240311292E0,3.127772212E-1,-2.300411463E-1,-4.056419134E-1
5.251498292E0,-1.173110504E0,-1.560774353E1,-2.439177704E0,5.250256292E0,2.702200599E-2,-1.530587822E-1,-3.725029528E-1
5.261443292E0,-1.404828644E0,-1.512769180E1,-2.003134460E0,5.260202292E0,-2.991313338E-1,-2.148289382E-1,-3.767839968E-1
5.271388292E0,-1.237925720E0,-1.434916077E1,-5.807922363E-2,5.270147292E0,-5.843661427E-1,-2.648446858E-1,-4.267176390E-1
5.281334292E0,-1.044378204E0,-1.279120056E1,1.172362061E0,5.280092292E0,-8.236975074E-1,-4.321159720E-1,-5.402559042E-1
5.291279292E0,-1.027014313E0,-1.096335159E1,1.930236053E0,5.290037292E0,-1.083614945E0,-7.775758505E-1,-6.904628277E-1
5.301224833E0,-8.376580811E-1,-1.005429199E1,2.802621918E0,5.299983833E0,-1.121485949E0,-1.063306212E0,-8.602917790E-1
5.311169833E0,-9.442364502E-1,-9.579928436E0,2.221679993E0,5.309928834E0,-1.134184718E0,-1.127495170E0,-1.065932512E0
5.321115833E0,-1.133442993E0,-1.014799713E1,-1.376537476E0,5.319873834E0,-1.529441237E0,-9.769449234E-1,-1.311496735E0
5.331060834E0,-1.120569763E0,-1.214259933E1,-4.531077576E0,5.329818833E0,-2.132929564E0,-6.068130732E-1,-1.657170534E0
5.341005833E0,-1.707199860E0,-1.418435349E1,-2.660567322E0,5.339764833E0,-2.484867096E0,-7.101961412E-3,-1.974601507E0
5.350950833E0,-3.400927734E0,-1.544907349E1,5.532495117E-1,5.349709834E0,-2.554966927E0,6.477203965E-1,-2.114556074E0
5.360896833E0,-6.059998169E0,-1.709594879E1,3.137924652E0,5.359654834E0,-2.289200544E0,1.260160923E0,-1.936040640E0
5.370841834E0,-9.098978577E0,-1.883667892E1,4.819827118E0,5.369599833E0,-1.818822026E0,1.633506060E0,-1.442493200E0
5.380786833E0,-1.105690704E1,-1.885194717E1,4.342918854E0,5.379545833E0,-1.319861174E0,1.521245360E0,-8.380417228E-1
5.390731833E0,-1.033450928E1,-1.601025650E1,2.739004211E0,5.389490834E0,-9.590188265E-1,1.110097885E0,-3.470552862E-1
5.400677833E0,-7.697892151E0,-1.240889557E1,7.220983887E-1,5.399435834E0,-7.178637385E-1,5.408270359E-1,2.867252380E-2
5.410622834E0,-4.895719299E0,-1.016326538E1,-8.750802612E-1,5.409380833E0,-5.936437249E-1,1.572199166E-1,2.765598297E-1
5.420567833E0,-3.113076324E0,-8.938512268E0,-2.306403809E0,5.419326833E0,-7.031499743E-1,1.443661600E-1,4.558664560E-1
5.430512833E0,-1.324894867E0,-8.134384460E0,-4.371659088E0,5.429271834E0,-1.045880795E0,1.576864570E-1,5.414255857E-1
5.440458833E0,1.048868866E0,-7.823031921E0,-5.315296783E0,5.439216834E0,-1.438235760E0,1.144737378E-1,4.925245941E-1
5.450403834E0,3.651356964E0,-7.678582306E0,-4.801116028E0,5.449161833E0,-1.720703483E0,4.733190686E-2,2.542990744E-1
5.460348833E0,5.279072113E0,-7.707771606E0,-3.119812317E0,5.459107833E0,-1.767628908E0,-9.181000292E-2,-8.208321780E-2
5.470293833E0,5.056484985E0,-7.945327606E0,-1.550625458E0,5.469052834E0,-1.665380239E0,2.058878355E-2,-2.241133451E-1
5.480239833E0,3.856430511E0,-7.859705658E0,-1.615290985E0,5.478997834E0,-1.607686400E0,-6.974537671E-2,-1.885249913E-1
5.490184834E0,3.603905640E0,-6.859934692E0,-1.908680878E0,5.488942833E0,-1.574840903E0,-4.666807652E-1,-2.128978670E-1
5.500129833E0,3.612437897E0,-6.128854980E0,-1.044527893E0,5.498888833E0,-1.438029766E0,-8.233124018E-1,-3.028274775E-1
5.510074833E0,3.465593262E0,-5.949677582E0,-5.192701721E-1,5.508833834E0,-1.237033248E0,-1.049977899E0,-4.052694738E-1
5.520020833E0,2.805765381E0,-5.882018280E0,-6.408174133E-1,5.518778834E0,-1.054526806E0,-1.135594010E0,-4.518263340E-1
5.529965834E0,1.827699280E0,-5.491031342E0,-9.316625977E-1,5.528723833E0,-9.199974537E-1,-1.097508073E0,-4.711079895E-1
5.539910833E0,1.125509491E0,-4.980592804E0,-1.158291321E0,5.538669833E0,-7.542647123E-1,-1.048338175E0,-4.612527192E-1
5.549855833E0,6.053411865E-1,-4.603975983E0,-8.987310791E-1,5.548614834E0,-5.560163856E-1,-1.022483587E0,-4.618147612E-1
5.559801833E0,9.430389404E-3,-4.128863983E0,-7.999365234E-1,5.558559834E0,-3.736141026E-1,-1.081280231E0,-4.420453310E-1
5.569746834E0,-3.838018799E-1,-3.579207001E0,-1.071471863E0,5.568504833E0,-2.146748900E-1,-1.211880207E0,-4.349781871E-1
5.579691833E0,-5.183720398E-1,-3.263064423E0,-1.167122955E0,5.578450833E0,-7.965342700E-2,-1.341021657E0,-4.134601057E-1
5.589636833E0,-6.180647278E-1,-3.075354767E0,-1.018482056E0,5.588395834E0,5.232122913E-2,-1.433215857E0,-3.588226438E-1
5.599582833E0,-4.284091187E-1,-3.013683014E0,-9.708810425E-1,5.598340834E0,2.079057544E-1,-1.464314938E0,-3.086175323E-1
5.609527834E0,-1.300794983E-1,-3.149300995E0,-1.154848480E0,5.608285833E0,3.827258945E-1,-1.407031059E0,-2.921313941E-1
5.619472833E0,3.182382202E-1,-3.717968445E0,-1.604214020E0,5.618230833E0,5.511769652E-1,-1.264172554E0,-3.131663501E-1
5.629417833E0,5.364843750E-1,-4.632117462E0,-2.189197540E0,5.628176834E0,7.006803155E-1,-1.045181990E0,-3.382192254E-1
5.639363833E0,5.957611084E-1,-5.971083069E0,-2.930755463E0,5.638121834E0,7.735311389E-1,-8.179816008E-1,-3.396102190E-1
5.649308834E0,4.851411438E-1,-7.388934631E0,-3.562292175E0,5.648066833E0,8.073763847E-1,-6.389346123E-1,-3.328685164E-1
5.659253833E0,1.116677856E-1,-8.898695068E0,-4.139042816E0,5.658011833E0,8.707183599E-1,-7.081390023E-1,-3.014093935E-1
5.669198833E0,-2.287243652E-1,-1.100855759E1,-4.786745911E0,5.667957834E0,8.665854335E-1,-1.029560328E0,-2.304636538E-1
5.679144833E0,6.451583862E-2,-1.217178864E1,-5.308560791E0,5.677902834E0,8.293525577E-1,-1.150485158E0,-1.232184246E-1
5.689089834E0,2.444416809E-1,-1.291499313E1,-6.949298859E0,5.687847833E0,6.119548082E-1,-1.080109954E0,-1.652995124E-4
5.699034833E0,4.863386536E-1,-1.437700287E1,-9.158404999E0,5.697792833E0,1.762930751E-1,-9.976925850E-1,-2.062450349E-2
5.708979833E0,-1.437161407E0,-1.631352585E1,-7.962242432E0,5.707738834E0,-1.333589703E-1,-7.861990929E-1,9.433465078E-3
5.718925833E0,-3.651656342E0,-1.588436829E1,-7.038064270E0,5.717683834E0,-2.799691856E-1,-8.049663901E-1,1.141899750E-1
5.728870834E0,-2.737806702E0,-1.311512695E1,-8.414901123E0,5.727628833E0,-4.686546922E-1,-7.691743374E-1,6.132097542E-2
5.738815833E0,-4.337979126E-1,-1.068088898E1,-8.873247986E0,5.737573833E0,-5.740876794E-1,-3.789189756E-1,-6.382895261E-2
5.748760833E0,1.426832886E0,-8.070617065E0,-8.193810883E0,5.747519834E0,-5.206351280E-1,2.809693515E-1,-1.401735544E-1
5.758706833E0,2.164049835E0,-5.908812561E0,-8.218958588E0,5.757464834E0,-4.884891808E-1,8.252620101E-1,-1.206765547E-1
5.768651834E0,1.815275116E0,-4.580774231E0,-8.198600922E0,5.767409833E0,-5.718472600E-1,9.191702008E-1,-1.096496135E-1
5.778596833E0,2.131567383E-1,-5.548212433E0,-7.268435211E0,5.777354833E0,-8.664671779E-1,5.297321677E-1,-1.921266615E-1
5.788541833E0,-1.910028076E0,-7.751331024E0,-3.683090973E0,5.787300834E0,-7.899153829E-1,2.198251486E-1,-1.079489067E-1
5.798486833E0,-2.248025208E0,-1.125180176E1,-3.265908508E0,5.797245834E0,-5.721737742E-1,-2.485167533E-1,6.444363296E-2
5.808432834E0,-1.147663422E0,-1.684072952E1,-3.416195984E0,5.807190833E0,-2.962951958E-1,-5.784611702E-1,1.606384069E-1
5.818377833E0,-7.084767151E-1,-2.113589767E1,-1.023571472E0,5.817135833E0,-4.622410983E-2,-3.917911947E-1,3.030565381E-1
5.828322833E0,-3.047961731E0,-2.152329208E1,1.347198486E-2,5.827081834E0,5.953985453E-2,-7.203637809E-2,6.142379642E-1
5.838267833E0,-3.414699097E0,-1.727767090E1,-5.987548828E-1,5.837026834E0,1.059441119E-1,4.812758416E-2,7.322468758E-1
5.848213834E0,-3.023712158E0,-1.200802917E1,1.577569427E0,5.846971833E0,2.951391339E-1,3.334593475E-1,7.808932066E-1
5.858158833E0,-3.651207275E0,-1.088805817E1,2.068099365E0,5.856916833E0,4.440961182E-1,6.635845304E-1,9.402381778E-1
5.868103833E0,-2.212399292E0,-1.118743561E1,1.026565247E0,5.866862833E0,4.578018785E-1,9.389060140E-1,1.051379442E0
5.878048833E0,1.072669373E0,-1.061772034E1,1.723515930E0,5.876807834E0,5.446169972E-1,1.066526532E0,9.875146151E-1
5.887994834E0,3.130889282E0,-1.036998550E1,2.460283813E0,5.886752833E0,6.567820907E-1,1.162594199E0,8.614882827E-1
5.897939833E0,3.312312012E0,-1.000654129E1,1.556613007E0,5.896697833E0,7.365102172E-1,1.004065275E0,7.941076159E-1
5.907884833E0,2.833757172E0,-9.345815277E0,3.975732422E-1,5.906642833E0,7.853118181E-1,6.806395650E-1,8.059703112E-1
5.917829833E0,2.610870667E0,-8.815617828E0,-2.658471680E-1,5.916588834E0,7.820023298E-1,2.617334127E-1,8.588910699E-1
5.927775834E0,3.044069824E0,-8.383765869E0,-2.809657288E-1,5.926533833E0,8.425736427E-1,-2.517927885E-1,8.865870237E-1
5.937720833E0,3.635639648E0,-8.314310303E0,4.342469788E-1,5.936478833E0,1.014960885E0,-6.837649941E-1,8.392975330E-1
5.947665833E0,3.851341095E0,-8.481063538E0,1.342558136E0,5.946423833E0,1.219020724E0,-9.116715193E-1,7.063364387E-1
5.957610833E0,3.199297028E0,-8.667126617E0,1.982327728E0,5.956369834E0,1.409062266E0,-8.838084340E-1,5.278567076E-1
5.967556834E0,2.117346954E0,-8.596473541E0,1.990111542E0,5.966314833E0,1.586639404E0,-7.265545726E-1,3.002074063E-1
5.977501833E0,1.379531250E0,-8.219257965E0,1.187031555E0,5.976259833E0,1.687497497E0,-5.075556636E-1,-1.279550511E-2
5.987446833E0,6.926097107E-1,-7.921976166E0,8.801696777E-2,5.986204833E0,1.700575233E0,-8.492995799E-2,-3.975310326E-1
5.997391833E0,-8.505313110E-1,-8.000413055E0,-4.776567078E-1,5.996150834E0,1.693650484E0,4.111418426E-1,-6.591663361E-1
6.007336834E0,-3.126248932E0,-8.136929169E0,-3.689826965E-1,6.006095833E0,1.694229484E0,8.723652959E-1,-7.079524398E-1
6.017282833E0,-5.325774994E0,-8.009544067E0,-1.080752563E-1,6.016040833E0,1.710460901E0,1.290686369E0,-5.718699694E-1
6.027227833E0,-6.575526123E0,-7.701634369E0,-2.803669739E-1,6.025985833E0,1.671270728E0,1.609949708E0,-3.395766914E-1
6.037172833E0,-7.139104156E0,-7.135511627E0,-8.454418945E-1,6.035931834E0,1.486699581E0,1.759101868E0,-4.389256984E-2
6.047117834E0,-7.014413452E0,-6.265670471E0,-1.739532623E0,6.045876833E0,1.167563438E0,1.726208448E0,2.178548425E-1
6.057063833E0,-5.839506683E0,-5.844446411E0,-1.972148895E0,6.055821833E0,8.376812935E-1,1.661123395E0,4.045488238E-1
6.067008833E0,-3.521876221E0,-6.298901367E0,-1.254241791E0,6.065766833E0,5.910623670E-1,1.700584769E0,4.772906899E-1
6.076953833E0,-1.369053040E0,-7.241640930E0,-1.959425354E-1,6.075711834E0,4.663057923E-1,1.831210971E0,4.659259319E-1
6.086898834E0,3.815565491E-1,-8.395740967E0,6.414161682E-1,6.085657833E0,4.622396231E-1,1.940835834E0,4.202649295E-1
6.096844833E0,1.697470093E0,-9.564959564E0,1.108594666E0,6.095602833E0,5.500307083E-1,1.936067700E0,3.407647610E-1
6.106789833E0,2.412233734E0,-1.036384827E1,1.299298096E0,6.105547833E0,7.064366341E-1,1.787119269E0,2.587752342E-1
6.116734833E0,2.257305908E0,-1.039962387E1,9.807604980E-1,6.115492834E0,8.316989541E-1,1.681334019E0,2.539413273E-1
6.126679834E0,1.742376709E0,-9.661957855E0,-1.194515991E-1,6.125438833E0,8.545739055E-1,1.601115346E0,3.365991712E-1
6.136624833E0,1.218765564E0,-9.224118347E0,-1.611099701E0,6.135383833E0,7.694829702E-1,1.466791630E0,4.866121113E-1
6.146570833E0,9.163943481E-1,-8.810079346E0,-2.250120850E0,6.145328833E0,6.352884769E-1,1.307970405E0,6.170535684E-1
6.156515833E0,1.077908478E0,-8.163124695E0,-2.086960144E0,6.155273834E0,4.982587099E-1,1.164879322E0,7.004038692E-1
6.166460834E0,1.106049957E0,-7.760312347E0,-1.453477478E0,6.165219833E0,4.256106913E-1,1.061876774E0,7.836888433E-1
6.176405833E0,1.033899994E0,-7.826774139E0,-1.035097504E0,6.175164833E0,3.890963495E-1,9.330313802E-1,8.850064278E-1
6.186351833E0,1.367107086E0,-8.055498505E0,-1.187330933E0,6.185109833E0,3.502272666E-1,7.176288366E-1,9.320346117E-1
6.196296833E0,2.241289215E0,-8.217162323E0,-1.807491302E0,6.195054834E0,2.832879126E-1,4.614021182E-1,9.071201682E-1
6.206241834E0,3.156336365E0,-8.545878754E0,-1.999841309E0,6.204999833E0,2.243506312E-1,2.856045961E-1,8.159447312E-1
6.216186833E0,3.899540863E0,-8.874295807E0,-2.300416260E0,6.214945833E0,1.356737614E-1,2.214972675E-1,6.807509661E-1
6.226132833E0,4.279899902E0,-9.198072510E0,-2.576142883E0,6.224890833E0,4.701696336E-2,2.011186779E-1,5.045596361E-1
6.236077833E0,4.315974884E0,-9.422904968E0,-2.493365021E0,6.234835834E0,5.810663104E-2,1.928072274E-1,2.842483521E-1
6.246022834E0,3.659440155E0,-9.594298553E0,-2.609373779E0,6.244780833E0,6.958135962E-2,1.840786338E-1,9.741791338E-2
6.255967833E0,1.927841034E0,-9.858499146E0,-2.269281006E0,6.254726833E0,4.892135784E-2,2.042001486E-1,5.475540832E-2
6.265912833E0,6.105802917E-1,-9.928254089E0,-1.651515656E0,6.264671833E0,8.442141116E-2,8.589104563E-2,1.348078102E-1
6.275858833E0,7.659571838E-1,-9.757758636E0,-7.634124756E-1,6.274616834E0,2.369246632E-1,-1.093487516E-1,1.923118532E-1
6.285803834E0,1.923350372E0,-9.966873779E0,-8.382568359E-2,6.284561833E0,4.277573526E-1,-3.247614205E-1,1.682638526E-1
6.295748417E0,3.200494537E0,-1.041070084E1,-3.475772095E-1,6.294507833E0,5.841935873E-1,-5.802195668E-1,1.145902425E-1
6.305693417E0,3.957171021E0,-1.087892715E1,-7.783813477E-1,6.304452417E0,7.076423168E-1,-7.361573577E-1,5.964846164E-2
6.315639417E0,4.241579590E0,-1.142708725E1,-1.235830078E0,6.314397417E0,8.096730709E-1,-7.518167496E-1,-2.656658180E-2
6.325584417E0,3.639980621E0,-1.207344315E1,-1.651066589E0,6.324342417E0,8.359401226E-1,-6.976053715E-1,-1.216605157E-1
6.335529417E0,2.552042999E0,-1.332094894E1,-1.967209167E0,6.334287417E0,7.920150161E-1,-6.710624695E-1,-2.353066653E-1
6.345474417E0,1.531914368E0,-1.461979797E1,-1.938468933E0,6.344233417E0,7.414475083E-1,-6.000872254E-1,-3.418987095E-1
6.355420417E0,3.986210632E-1,-1.559022995E1,-2.063758392E0,6.354178417E0,5.953578949E-1,-4.098938704E-1,-3.721327782E-1
6.365365417E0,-3.893403625E-1,-1.569965240E1,-2.184257813E0,6.364123417E0,3.878961504E-1,-2.000462413E-1,-4.056626260E-1
6.375310417E0,-8.590635681E-1,-1.521046967E1,-2.330054626E0,6.374068417E0,1.675763130E-1,-2.451367378E-1,-4.452827573E-1
6.385255417E0,-1.377435608E0,-1.472008942E1,-2.687361603E0,6.384014417E0,-1.527286172E-1,-5.405474305E-1,-4.156592190E-1
6.395200417E0,-1.284029846E0,-1.434946014E1,-9.882449341E-1,6.393959417E0,-4.508663118E-1,-7.522375584E-1,-3.669247031E-1
6.405146417E0,-9.759704590E-1,-1.364427658E1,1.062191162E0,6.403904417E0,-6.976982355E-1,-9.580625892E-1,-3.526568115E-1
6.415091417E0,-9.053173828E-1,-1.229124023E1,2.051334229E0,6.413849417E0,-8.960264921E-1,-1.190473795E0,-3.896190822E-1
6.425036417E0,-9.409432983E-1,-1.114402588E1,2.468217316E0,6.423794417E0,-1.010990024E0,-1.361996770E0,-5.034296513E-1
6.434981417E0,-1.487756195E0,-1.027014313E1,2.400558014E0,6.433740417E0,-1.085369110E0,-1.445554256E0,-5.864691138E-1
6.444927417E0,-1.872755585E0,-9.738897858E0,1.907034302E-1,6.443685417E0,-1.452670574E0,-1.438018084E0,-7.021903992E-1
6.454872417E0,-2.155667267E0,-1.149145340E1,-3.751947784E0,6.453630417E0,-2.164203882E0,-1.229295850E0,-8.355961442E-1
6.464817417E0,-2.768043823E0,-1.377510452E1,-3.246448975E0,6.463575417E0,-2.566586733E0,-7.932090163E-1,-1.006395102E0
6.474762417E0,-2.886746979E0,-1.488085510E1,-6.581813049E-1,6.473521417E0,-2.698709965E0,-3.345157802E-1,-1.198292136E0
6.484707417E0,-4.121080170E0,-1.545685730E1,1.899250488E0,6.483466417E0,-2.573648930E0,1.916745007E-1,-1.239925861E0
6.494653417E0,-5.868246918E0,-1.566612213E1,3.676804047E0,6.493411417E0,-2.307324171E0,8.362545371E-1,-1.061158776E0
6.504598417E0,-7.252268829E0,-1.463252151E1,3.859424286E0,6.503356417E0,-1.950663805E0,1.395137191E0,-7.287701964E-1
6.514543417E0,-6.923253021E0,-1.227971420E1,2.754422150E0,6.513301417E0,-1.610011101E0,1.606899738E0,-5.334984660E-1
6.524488417E0,-5.531896362E0,-1.021056702E1,1.310973816E0,6.523247417E0,-1.309518099E0,1.465936184E0,-3.865024447E-1
6.534433417E0,-4.543052673E0,-9.747430115E0,3.646417236E-1,6.533192417E0,-1.110540628E0,1.175858259E0,-2.249231339E-1
6.544379417E0,-3.304977264E0,-9.477840729E0,-1.096619568E0,6.543137417E0,-1.072965741E0,8.486945629E-1,-1.196436677E-2
6.554324417E0,-1.896256714E0,-9.315278778E0,-2.963537292E0,6.553082417E0,-1.189875603E0,5.244411230E-1,1.782167554E-1
6.564269417E0,-1.270857239E-1,-9.012308807E0,-4.470902710E0,6.563028417E0,-1.436206579E0,2.721253932E-1,3.079977632E-1
6.574214417E0,2.318079529E0,-8.644523621E0,-5.034780121E0,6.572973417E0,-1.684690475E0,-2.444117665E-1,2.065502405E-1
6.584160417E0,3.753893738E0,-9.104067993E0,-3.712429962E0,6.582918417E0,-1.748993516E0,-4.788159132E-1,8.737817407E-2
6.594105417E0,3.486849060E0,-8.762029266E0,-2.511926422E0,6.592863417E0,-1.702111244E0,-5.572968721E-1,5.299463123E-2
6.604050417E0,3.474574585E0,-7.618407440E0,-2.336341553E0,6.602808417E0,-1.637181044E0,-8.832790852E-1,1.853477769E-2
6.613995417E0,3.668571167E0,-6.461163940E0,-1.701811066E0,6.612754417E0,-1.555964470E0,-1.233562231E0,-9.017971903E-2
6.623940417E0,3.294049988E0,-5.882467346E0,-6.746470642E-1,6.622699417E0,-1.369877934E0,-1.484754920E0,-1.666318923E-1
6.633886417E0,3.356619873E0,-5.292843475E0,-4.309538269E-1,6.632644417E0,-1.165542722E0,-1.582248926E0,-3.100021183E-1
6.643831417E0,3.052302704E0,-4.821024628E0,-6.200106812E-1,6.642589417E0,-9.858967662E-1,-1.452540040E0,-4.221973717E-1
6.653776417E0,2.059716797E0,-4.768932953E0,-5.783972168E-1,6.652535417E0,-8.376724124E-1,-1.228045940E0,-4.605293274E-1
6.663721417E0,1.180145874E0,-4.588108978E0,-9.544152832E-1,6.662480417E0,-7.254786491E-1,-1.066767097E0,-4.723180234E-1
6.673667417E0,2.128573608E-1,-4.453389130E0,-1.143771515E0,6.672425417E0,-6.006549597E-1,-1.019635081E0,-4.609356821E-1
6.683612417E0,-4.569996643E-1,-4.170776825E0,-1.143322449E0,6.682370417E0,-4.530399144E-1,-1.096465111E0,-4.597076774E-1
6.693557417E0,-5.234614563E-1,-3.926484833E0,-1.060245209E0,6.692315417E0,-2.975981236E-1,-1.271592140E0,-4.819671810E-1
6.703502417E0,-5.511538696E-1,-3.856280823E0,-7.746391296E-1,6.702261417E0,-1.299530268E-1,-1.434811950E0,-5.002149343E-1
6.713447417E0,-5.394781494E-1,-3.775748291E0,-3.173400879E-1,6.712206417E0,8.181568235E-2,-1.467819929E0,-5.082424879E-1
6.723393417E0,-4.375401306E-1,-3.841761017E0,-1.487905884E-1,6.722151417E0,3.266069591E-1,-1.371254921E0,-5.234932899E-1
6.733338417E0,-2.498304749E-1,-4.120032349E0,-6.572831726E-1,6.732096417E0,5.549194813E-1,-1.224839449E0,-5.591231585E-1
6.743283417E0,-1.471440125E-1,-4.515360260E0,-1.646276550E0,6.742041417E0,7.266873121E-1,-1.046307564E0,-6.111525893E-1
6.753228417E0,-1.832189941E-1,-4.951253815E0,-2.738106079E0,6.751987417E0,8.462177515E-1,-8.402260542E-1,-6.898149252E-1
6.763173417E0,-3.685336304E-1,-5.425317993E0,-3.774101715E0,6.761932417E0,8.854434490E-1,-5.981377363E-1,-7.839792967E-1
6.773119417E0,-9.990225220E-1,-5.991141357E0,-4.539759521E0,6.771877417E0,8.674799204E-1,-3.565048575E-1,-8.202073574E-1
6.783064417E0,-2.063908081E0,-7.385192413E0,-5.056934052E0,6.781822417E0,8.301552534E-1,-2.540827692E-1,-6.868156195E-1
6.793009417E0,-2.144590302E0,-9.402098236E0,-6.481222229E0,6.791768417E0,6.058214903E-1,-4.978046119E-1,-5.610010028E-1
6.802954417E0,-9.933343506E-1,-1.063313828E1,-7.340884552E0,6.801713417E0,4.106489420E-1,-6.884117126E-1,-4.497451186E-1
6.812900417E0,5.568420410E-2,-1.107262436E1,-7.316185913E0,6.811658417E0,2.842065990E-1,-6.186768413E-1,-3.334049284E-1
6.822845417E0,3.721261597E-1,-1.196042816E1,-7.170838165E0,6.821603417E0,1.523519903E-1,-5.041891932E-1,-2.322112769E-1
6.832790417E0,-1.022373962E0,-1.419797516E1,-6.468199310E0,6.831548417E0,-3.291133791E-2,-5.443568230E-1,-1.184429079E-1
6.842735417E0,-2.897075500E0,-1.581042206E1,-6.030060425E0,6.841494417E0,-2.162853777E-1,-6.539312005E-1,-1.396411331E-3
6.852680417E0,-3.389701080E0,-1.479702942E1,-6.169570312E0,6.851439417E0,-4.561083615E-1,-5.715990663E-1,8.190140873E-2
6.862626417E0,-1.975891113E0,-1.271321274E1,-7.916437683E0,6.861384417E0,-7.089602947E-1,-3.553061783E-1,9.928813204E-3
6.872571417E0,2.811154175E-1,-1.045770309E1,-8.645571442E0,6.871329417E0,-7.453523874E-1,1.563429981E-1,-1.229157895E-1
6.882516417E0,2.027084656E0,-8.008346558E0,-8.502319336E0,6.881274417E0,-4.989863932E-1,7.069119215E-1,-2.216221243E-1
6.892461417E0,2.324067078E0,-6.901697845E0,-9.686357117E0,6.891220417E0,-6.171681881E-1,6.398308873E-1,-3.836155236E-1
6.902407417E0,3.835025024E-1,-8.301586761E0,-9.444909210E0,6.901165417E0,-9.783499837E-1,3.994427621E-1,-4.716341496E-1
6.912352417E0,-1.007405090E0,-1.080423248E1,-6.517297211E0,6.911110417E0,-1.181865454E0,1.751654595E-1,-3.628419042E-1
6.922297417E0,6.855743408E-1,-1.490480530E1,-5.711672516E0,6.921055417E0,-1.312730789E0,-2.957573533E-1,-2.821139097E-1
6.932242417E0,1.397493896E0,-1.995171021E1,-3.772904205E0,6.931001417E0,-1.305235147E0,-5.518966913E-1,-1.458388865E-1
6.942187417E0,-3.336561584E-1,-2.390768372E1,-2.422412567E0,6.940946417E0,-1.006519794E0,-7.994390726E-1,1.947585344E-1
6.952133417E0,-1.248254242E0,-2.167313049E1,-1.072220306E0,6.950891417E0,-5.887044072E-1,-6.992378831E-1,3.723466694E-1
6.962078417E0,-1.080303497E0,-1.292577072E1,1.103205872E-1,6.960836417E0,-1.185050793E-2,-4.802335501E-1,3.590067923E-1
6.972023417E0,-2.806962891E0,-6.444398804E0,1.726060638E0,6.970781417E0,4.640132189E-1,2.369344532E-1,4.203492403E-1
6.981968417E0,-3.091820526E0,-4.369264069E0,1.037342834E0,6.980727417E0,4.100837111E-1,1.055245757E0,4.169794619E-1
6.991913417E0,-2.967878265E0,-5.966143341E0,-1.921404419E0,6.990672417E0,1.822292209E-1,1.195652485E0,5.229567885E-1
7.001859417E0,-1.970652008E0,-8.417296143E0,-2.000140686E0,7.000617417E0,1.382952780E-1,1.167360663E0,7.484937310E-1
7.011804417E0,4.490661621E-2,-9.416168976E0,-9.145980835E-2,7.010562417E0,2.288784385E-1,1.080627322E0,9.237680435E-1
7.021749417E0,7.890092468E-1,-9.505682831E0,9.125024414E-1,7.020507417E0,3.241637945E-1,8.358467817E-1,1.089877605E0
7.031694417E0,7.800279236E-1,-9.703122253E0,2.022294617E0,7.030453417E0,5.764367580E-1,5.100806355E-1,1.175649524E0
7.041639417E0,1.311123505E0,-9.837542725E0,2.655178528E0,7.040398417E0,8.728217483E-1,1.075383872E-1,1.233706713E0
7.051585417E0,1.935924225E0,-1.001417542E1,2.081122284E0,7.050343417E0,1.067782164E0,-3.747347593E-1,1.216582060E0
7.061530417E0,3.120111694E0,-9.839488678E0,1.792372742E0,7.060288417E0,1.297217250E0,-7.258973122E-1,1.034247160E0
7.071475417E0,3.859124908E0,-1.014994308E1,1.914818115E0,7.070234417E0,1.582724929E0,-8.685324788E-1,7.506851554E-1
7.081420417E0,3.762276306E0,-1.081710571E1,2.109712830E0,7.080179417E0,1.902092814E0,-7.649247646E-1,4.438314140E-1
7.091366417E0,2.959645386E0,-1.080258591E1,1.938917999E0,7.090124417E0,2.190823078E0,-4.362323284E-1,1.885261387E-1
7.101311417E0,1.683099976E0,-9.999805298E0,6.021977234E-1,7.100069417E0,2.333304644E0,-4.418280907E-3,1.475519687E-2
7.111256417E0,6.821315002E-1,-8.927584991E0,-1.525777130E0,7.110014417E0,2.295589209E0,3.340055645E-1,-1.450650990E-1
7.121201417E0,2.784210205E-1,-8.264014893E0,-3.460503845E0,7.119960417E0,2.086449385E0,6.311769485E-1,-3.034738302E-1
7.131146417E0,-1.011895752E-1,-7.963439941E0,-4.768783264E0,7.129905417E0,1.734873652E0,8.768810034E-1,-4.260886908E-1
7.141092417E0,-7.842192078E-1,-7.723488922E0,-5.243745575E0,7.139850417E0,1.319287062E0,1.048531771E0,-4.456796050E-1
7.151037417E0,-1.833088074E0,-7.581584015E0,-5.001698914E0,7.149795417E0,9.096590281E-1,1.133862138E0,-3.609042764E-1
7.160982417E0,-2.662662964E0,-7.199129333E0,-4.130061493E0,7.159740417E0,5.572162271E-1,1.149215341E0,-1.991139203E-1
7.170927417E0,-3.081342316E0,-6.708000641E0,-2.705923004E0,7.169686417E0,3.140520155E-1,1.004375577E0,2.685507294E-3
7.180872417E0,-2.997965698E0,-6.189478912E0,-6.694079590E-1,7.179631417E0,2.662238181E-1,8.140422106E-1,1.834895611E-1
7.190818417E0,-2.656675415E0,-6.317762146E0,1.063089294E0,7.189576417E0,3.721513152E-1,5.709832311E-1,3.377148211E-1
7.200763417E0,-1.666634216E0,-6.878346405E0,1.728904724E0,7.199521417E0,5.427310467E-1,3.369769156E-1,3.854743838E-1
7.210708417E0,-3.210823059E-1,-7.261549530E0,1.947899323E0,7.209466417E0,7.491814494E-1,2.644398808E-1,3.292481303E-1
7.220653417E0,6.200106812E-1,-7.669002228E0,1.788929901E0,7.219412417E0,9.334046841E-1,3.613538146E-1,2.356454134E-1
7.230598417E0,9.610015869E-1,-8.158334656E0,1.007105713E0,7.229357417E0,1.037125707E0,5.415859222E-1,1.534584016E-1
7.240544417E0,9.159452820E-1,-8.734037476E0,1.995350647E-1,7.239302417E0,1.081552625E0,7.253205180E-1,9.428554028E-2
7.250489417E0,6.134243774E-1,-9.153165894E0,-4.405339050E-1,7.249247417E0,1.072824955E0,9.147178531E-1,7.489532977E-2
7.260434417E0,1.191522217E-1,-9.328900452E0,-9.551637268E-1,7.259192417E0,1.020835638E0,1.080232382E0,1.261884421E-1
7.270379417E0,-2.758763123E-1,-9.090446320E0,-1.362616425E0,7.269138417E0,9.507318139E-1,1.214396596E0,2.105091810E-1
7.280324417E0,-4.327500916E-1,-8.696615295E0,-1.761237488E0,7.279083417E0,8.602110147E-1,1.332657218E0,3.103025556E-1
7.290270417E0,-4.408332825E-1,-8.369844818E0,-1.974992981E0,7.289028417E0,7.550803423E-1,1.426255345E0,4.079907537E-1
7.300215292E0,-5.095404053E-1,-8.136779480E0,-1.963466949E0,7.298973292E0,6.414815784E-1,1.471740723E0,5.304276943E-1
7.310160292E0,-6.430627441E-1,-8.161029053E0,-2.091899872E0,7.308918292E0,5.077562928E-1,1.384719968E0,6.933851838E-1
7.320105292E0,-3.547622681E-1,-8.373587036E0,-2.841241608E0,7.318864292E0,3.412171304E-1,1.106218457E0,8.549466133E-1
7.330050292E0,4.881349182E-1,-8.669371948E0,-3.375181274E0,7.328809292E0,1.520535946E-1,7.929281592E-1,9.761784673E-1
7.339996292E0,1.659898224E0,-8.809480591E0,-3.157833252E0,7.338754292E0,-2.147168294E-2,5.876765847E-1,1.045263290E0
7.349941292E0,2.970872040E0,-8.708440704E0,-2.631677399E0,7.348699292E0,-1.260247231E-1,4.443934560E-1,1.043191433E0
7.359886292E0,4.077670441E0,-8.747060394E0,-1.988764343E0,7.358644292E0,-7.315508276E-2,3.178393245E-1,9.532559514E-1
7.369831292E0,4.866979065E0,-8.520731049E0,-1.789079590E0,7.368590292E0,3.878663108E-2,1.666801423E-1,7.827856541E-1
7.379776292E0,4.999303894E0,-7.900121613E0,-9.331594849E-1,7.378535292E0,2.173555791E-1,1.606560647E-1,6.004379392E-1
7.389722292E0,4.304748230E0,-7.842192078E0,-1.079255676E-1,7.388480292E0,4.187965393E-1,2.199518830E-1,4.758073092E-1
7.399667292E0,3.186723175E0,-8.456065521E0,-6.526428223E-2,7.398425292E0,6.211118102E-1,1.789871305E-1,4.044627845E-1
7.409612292E0,2.110760651E0,-9.191186829E0,-2.662962341E-1,7.408370292E0,7.842738628E-1,1.074919030E-1,3.506373763E-1
7.419557292E0,1.766775970E0,-1.008318192E1,-1.303190002E0,7.418316292E0,8.515114784E-1,-2.643996775E-1,3.461295068E-1
7.429503292E0,2.836002502E0,-1.036818924E1,-1.882335663E0,7.428261292E0,8.734881282E-1,-6.063687205E-1,3.014824092E-1
7.439448292E0,4.331243134E0,-1.069810318E1,-1.847757568E0,7.438206292E0,8.743678927E-1,-7.325125337E-1,1.894907355E-1
7.449393292E0,5.192252655E0,-1.152468430E1,-2.052531738E0,7.448151292E0,8.693206906E-1,-7.283923626E-1,5.208236165E-3
7.459338292E0,5.097799072E0,-1.251083359E1,-1.800156555E0,7.458096292E0,8.888071179E-1,-7.278392315E-1,-2.501130104E-1
7.469283292E0,4.068240051E0,-1.361463821E1,-1.348395996E0,7.468042292E0,9.865429997E-1,-7.826540470E-1,-5.261107683E-1
7.479229292E0,2.130669250E0,-1.452160217E1,-1.917362823E0,7.477987292E0,9.496914744E-1,-7.653869987E-1,-6.547418237E-1
7.489174292E0,1.507365417E-1,-1.492261826E1,-2.873574371E0,7.487932292E0,6.490834355E-1,-6.236085296E-1,-6.373655200E-1
7.499119292E0,-5.349874878E-1,-1.493534180E1,-2.487826538E0,7.497877292E0,3.729286194E-1,-5.803251863E-1,-6.357800364E-1
7.509064292E0,-8.785231018E-1,-1.526824951E1,-1.897454224E0,7.507823292E0,1.113795638E-1,-8.198378682E-1,-5.980134606E-1
7.519009292E0,-1.179547119E0,-1.574979813E1,-1.605261841E0,7.517768292E0,-1.651841402E-1,-1.178909898E0,-5.133958459E-1
7.528955292E0,-6.568341064E-1,-1.584080887E1,-4.354444885E-1,7.527713292E0,-4.269116223E-1,-1.401101708E0,-4.466488361E-1
7.538900292E0,1.091230774E-1,-1.493279709E1,6.268963623E-1,7.537658292E0,-6.864299178E-1,-1.514122486E0,-4.656220376E-1
7.548845292E0,2.436932373E-1,-1.313264053E1,1.423539734E0,7.547603292E0,-9.337204099E-1,-1.558943510E0,-5.748947263E-1
7.558790292E0,-2.908451843E-1,-1.170610703E1,2.381697235E0,7.557548292E0,-1.101091146E0,-1.430919766E0,-7.283209562E-1
7.568735292E0,-1.512155457E0,-1.076845688E1,1.991608429E0,7.567494292E0,-1.317494035E0,-1.212177038E0,-8.606446385E-1
7.578680292E0,-2.786904602E0,-1.009366013E1,-9.696835327E-1,7.577439292E0,-1.763926625E0,-1.134445667E0,-1.025525689E0
7.588626292E0,-4.613256683E0,-1.164937500E1,-4.049528961E0,7.587384292E0,-2.376113653E0,-8.539512157E-1,-1.118297935E0
7.598571292E0,-5.686524811E0,-1.428689026E1,-2.205214233E0,7.597329292E0,-2.727863312E0,-2.125772685E-1,-1.202181220E0
7.608516292E0,-6.015390930E0,-1.542632080E1,1.213676147E0,7.607275292E0,-2.703675747E0,5.676255822E-1,-1.258226871E0
7.618461292E0,-7.320676575E0,-1.568662949E1,4.036955109E0,7.617220292E0,-2.348868370E0,1.373241186E0,-1.153696775E0
7.628406292E0,-8.576864319E0,-1.546329391E1,4.915029144E0,7.627165292E0,-1.809093237E0,1.933041573E0,-8.404414058E-1
7.638352292E0,-8.413853302E0,-1.395532974E1,4.140839081E0,7.637110292E0,-1.277170420E0,2.074392557E0,-5.030297041E-1
7.648297292E0,-6.946305084E0,-1.159863052E1,2.785407715E0,7.647055292E0,-8.827847838E-1,1.822174907E0,-2.643648982E-1
7.658242292E0,-4.511019287E0,-1.001627106E1,1.001417542E0,7.657000292E0,-6.798771024E-1,1.331432819E0,-1.352884173E-1
7.668187292E0,-2.674937439E0,-9.586365051E0,-1.541644135E0,7.666946292E0,-7.254025340E-1,1.010822654E0,7.130496949E-2
7.678132292E0,-5.083428955E-1,-9.437275085E0,-3.651207275E0,7.676891292E0,-8.506604433E-1,7.295498252E-1,1.926743239E-1
7.688078292E0,1.352287903E0,-9.286987610E0,-5.422773285E0,7.686836292E0,-1.097872972E0,5.616186261E-1,2.232458144E-1
7.698023292E0,2.613864441E0,-9.632768555E0,-6.522087250E0,7.696781292E0,-1.379690409E0,2.402401865E-1,1.156235784E-1
7.707968292E0,4.045187988E0,-9.940678253E0,-5.961952057E0,7.706726292E0,-1.602812409E0,-5.139379948E-2,-4.797041789E-2
7.717913292E0,4.546345825E0,-9.879605255E0,-4.112697601E0,7.716672292E0,-1.676317692E0,-1.291116327E-1,-1.842691451E-1
7.727858292E0,3.810027008E0,-8.986861725E0,-2.732866974E0,7.726617292E0,-1.679406643E0,-3.243437111E-1,-2.240700871E-1
7.737804292E0,3.855831757E0,-7.219037933E0,-2.391277313E0,7.736562292E0,-1.670687318E0,-7.425811887E-1,-2.852241099E-1
7.747749292E0,4.124672699E0,-6.306834869E0,-1.349743195E0,7.746507292E0,-1.574661136E0,-1.046762586E0,-3.681206107E-1
7.757694292E0,4.205953674E0,-5.769751740E0,-4.324507141E-1,7.756452292E0,-1.422228575E0,-1.239689350E0,-5.090295672E-1
7.767639292E0,3.865112457E0,-5.418432312E0,-4.189787292E-1,7.766398292E0,-1.259172559E0,-1.439224243E0,-6.300888658E-1
7.777584292E0,2.784210205E0,-5.459147644E0,-4.267625427E-1,7.776343292E0,-1.122173786E0,-1.473891497E0,-6.772369146E-1
7.787530292E0,1.806443481E0,-5.334456940E0,-4.264631653E-1,7.786288292E0,-1.003964543E0,-1.390529752E0,-6.895524263E-1
7.797475292E0,1.134790192E0,-4.745581512E0,-4.158352661E-1,7.796233292E0,-8.840127587E-1,-1.323039532E0,-7.290640473E-1
7.807420292E0,5.191204834E-1,-3.969595184E0,-6.262976074E-1,7.806178292E0,-7.599326372E-1,-1.332307577E0,-7.636427879E-1
7.817365292E0,-3.156935120E-1,-3.550766144E0,-4.415817261E-1,7.816124292E0,-6.097234488E-1,-1.300388217E0,-7.551370859E-1
7.827310292E0,-8.225395203E-1,-3.225043488E0,-3.113525391E-1,7.826069292E0,-4.349434078E-1,-1.303968072E0,-7.412039638E-1
7.837256292E0,-1.068178711E0,-3.342848511E0,-2.393522644E-1,7.836014292E0,-2.207654715E-1,-1.348774672E0,-6.854259372E-1
7.847201292E0,-1.193617859E0,-3.768862610E0,-1.501377869E-1,7.845959292E0,3.775316477E-2,-1.379618883E0,-6.164759398E-1
7.857146292E0,-1.107097778E0,-4.157753906E0,-9.056167603E-2,7.855904292E0,3.244700432E-1,-1.295177698E0,-5.459936857E-1
7.867091292E0,-9.798623657E-1,-4.412673798E0,-1.924996948E-1,7.865850292E0,6.051794887E-1,-1.103640795E0,-4.901927412E-1
7.877036292E0,-7.777825928E-1,-4.610412598E0,-8.927435303E-1,7.875795292E0,8.446635604E-1,-8.931470513E-1,-4.687342644E-1
7.886982292E0,-7.833210754E-1,-5.078489227E0,-1.853296051E0,7.885740292E0,9.920218587E-1,-7.244757414E-1,-4.366314411E-1
7.896927292E0,-7.685018921E-1,-5.665718079E0,-2.883304138E0,7.895685292E0,1.048998237E0,-6.861922145E-1,-3.823173046E-1
7.906872292E0,-6.056405640E-1,-6.266119537E0,-3.460503845E0,7.905630292E0,1.067896843E0,-6.426612735E-1,-3.044089079E-1
7.916817292E0,-5.005590820E-1,-6.737639008E0,-3.443738708E0,7.915576292E0,1.076408267E0,-5.248693824E-1,-1.810244471E-1
7.926762292E0,-5.349874878E-1,-8.299341431E0,-4.584815826E0,7.925521292E0,1.022220969E0,-6.057506800E-1,-5.114367232E-2
7.936708292E0,-1.061293030E-1,-1.064107178E1,-5.948929138E0,7.935466292E0,8.915539980E-1,-8.647008538E-1,5.541250482E-2
7.946653292E0,9.800120544E-1,-1.174981613E1,-6.335724792E0,7.945411292E0,8.416213393E-1,-9.812940359E-1,3.988600895E-2
7.956598292E0,1.387614441E0,-1.212942673E1,-6.043233032E0,7.955356292E0,7.231095433E-1,-7.145848870E-1,-5.692301691E-2
7.966543292E0,-1.636097717E-1,-1.376866791E1,-6.080505524E0,7.965301292E0,4.080384076E-1,-1.974679828E-1,-1.010776907E-1
7.976488292E0,-1.898052979E0,-1.552526505E1,-6.703659668E0,7.975247292E0,3.723612428E-2,-6.567346305E-2,-1.250709146E-1
7.986433292E0,-2.937042389E0,-1.533665726E1,-6.890321503E0,7.985192292E0,-2.128024697E-1,-1.365457773E-1,-9.020959586E-2
7.996379292E0,-2.663411407E0,-1.444226715E1,-8.500672760E0,7.995137292E0,-4.776371121E-1,-2.296787500E-1,-1.247607470E-1
8.006324292E0,-9.241781616E-1,-1.299103500E1,-1.015084122E1,8.005082292E0,-6.946320534E-1,-7.175835967E-2,-2.242290080E-1
8.016269292E0,1.590891724E0,-1.044453049E1,-9.589508514E0,8.015027292E0,-7.036134005E-1,5.290294290E-1,-2.926034927E-1
8.026214292E0,3.190465393E0,-7.663164368E0,-9.436077576E0,8.024973292E0,-6.835241318E-1,1.329731107E0,-2.662043571E-1
8.036159292E0,2.174827423E0,-6.334676971E0,-9.533075867E0,8.034918292E0,-1.005838275E0,1.374888897E0,-2.383301407E-1
8.046105292E0,-7.191046143E-1,-7.866591339E0,-8.223898315E0,8.044863292E0,-1.445590615E0,5.684946775E-1,-6.415301561E-2
8.056050292E0,-8.677455139E-1,-1.138337814E1,-5.668562164E0,8.054808292E0,-1.338528275E0,-4.664185047E-1,1.365863681E-1
8.065995292E0,1.356030121E0,-1.559771439E1,-4.363725586E0,8.064753292E0,-9.862804413E-1,-9.777520895E-1,2.426611334E-1
8.075940292E0,1.234782257E0,-1.939876007E1,-2.303859100E0,8.074699292E0,-7.228428721E-1,-8.869383335E-1,3.271452487E-1
8.085885292E0,-2.124082947E0,-2.157852722E1,-5.159770203E-1,8.084644292E0,-4.751853943E-1,-5.821459293E-1,5.517413020E-1
8.095831292E0,-4.599635010E0,-1.877336060E1,-1.019529877E0,8.094589292E0,-2.983464897E-1,-3.509581089E-1,7.020996809E-1
8.105776292E0,-4.999902649E0,-1.277712982E1,-8.502319336E-1,8.104534292E0,9.233029559E-4,-7.555555552E-2,8.130855560E-1
8.115721292E0,-4.778063965E0,-8.244405670E0,1.769769745E0,8.114479292E0,3.871502280E-1,5.759212971E-1,9.248030186E-1
8.125666292E0,-4.455634460E0,-7.241940308E0,1.931583252E0,8.124425292E0,5.230694413E-1,1.109329224E0,1.060865521E0
8.135611292E0,-3.060834961E0,-8.222551117E0,1.722917175E-1,8.134370292E0,5.476146340E-1,1.266402364E0,1.207576871E0
8.145556292E0,-6.607260132E-1,-9.056616669E0,6.673123169E-1,8.144315292E0,6.216909885E-1,1.353242159E0,1.250554919E0
8.155502292E0,1.931283875E0,-9.192983093E0,1.748963013E0,8.154260292E0,7.617881298E-1,1.377772570E0,1.184113622E0
8.165447292E0,2.777474213E0,-9.750872955E0,2.235151978E0,8.164205292E0,9.138317108E-1,1.385717392E0,1.168383121E0
8.175392292E0,2.154469757E0,-1.015847534E1,1.881138153E0,8.174150292E0,1.073819518E0,1.125359297E0,1.225483298E0
8.185337292E0,1.896855469E0,-9.519603882E0,7.006929016E-1,8.184096292E0,1.146574140E0,6.626355648E-1,1.269008160E0
8.195282292E0,2.524051208E0,-8.674012299E0,5.044509888E-2,8.194041292E0,1.207500339E0,1.525475532E-1,1.219345927E0
8.205228292E0,3.619622955E0,-8.354426880E0,2.424957275E-2,8.203986292E0,1.355496168E0,-2.300853133E-1,1.074696541E0
8.215173292E0,4.190984802E0,-8.954379272E0,2.555186462E-1,8.213931292E0,1.557766438E0,-3.921906054E-1,8.746580482E-1
8.225118292E0,3.943399658E0,-9.653874664E0,6.605763245E-1,8.223876292E0,1.789333344E0,-3.488969505E-1,6.338075995E-1
8.235063292E0,3.173400879E0,-9.422755280E0,4.120930481E-1,8.233822292E0,1.970986485E0,-1.920477450E-1,3.900347054E-1
8.245008292E0,2.263742523E0,-8.726403351E0,-6.429130554E-1,8.243767292E0,2.039336443E0,8.703470230E-3,1.476180851E-1
8.254954292E0,1.640887756E0,-8.248896332E0,-2.162702637E0,8.253712292E0,1.955554485E0,2.354946285E-1,-1.031862423E-1
8.264899292E0,7.050338745E-1,-8.145461426E0,-3.736679535E0,8.263657292E0,1.700055003E0,4.344687164E-1,-3.153727949E-1
8.274844292E0,-7.846682739E-1,-8.065527649E0,-4.284390564E0,8.273602292E0,1.390076280E0,6.187145114E-1,-4.154298902E-1
8.284789292E0,-2.422711945E0,-7.843539276E0,-3.622017975E0,8.283548292E0,1.100882292E0,8.425502777E-1,-3.962314427E-1
8.294734292E0,-3.609593811E0,-7.548802185E0,-2.827470245E0,8.293493292E0,8.674604297E-1,1.046780109E0,-2.652940452E-1
8.304681292E0,-4.005670166E0,-7.001989288E0,-1.962718506E0,8.303440292E0,6.844091415E-1,1.115156770E0,-9.705124795E-2
8.314627292E0,-3.613785095E0,-5.937702484E0,-1.100661163E0,8.313385292E0,5.686345100E-1,9.581095576E-1,3.065416217E-2
8.324572292E0,-3.090323639E0,-5.676345978E0,1.975891113E-2,8.323330292E0,5.749853849E-1,7.527081966E-1,1.637951732E-1
8.334517292E0,-2.002984772E0,-5.921386414E0,7.735913086E-1,8.333275292E0,6.320608258E-1,6.963090301E-1,2.367603630E-1
8.344462292E0,-4.320016479E-1,-6.063441010E0,1.073268127E0,8.343221292E0,7.061318755E-1,7.739572525E-1,2.130340040E-1
8.354407292E0,5.966592407E-1,-6.879543915E0,1.420396271E0,8.353166292E0,8.047212958E-1,9.747514129E-1,1.625892371E-1
8.364353292E0,1.301842804E0,-7.882158966E0,1.448687439E0,8.363111292E0,9.423843622E-1,1.135363817E0,9.184928983E-2
8.374298292E0,1.423839111E0,-8.949140167E0,1.374890900E0,8.373056292E0,1.087521076E0,1.228295326E0,4.206312075E-2
8.384243292E0,1.226699066E0,-9.553134155E0,7.173083496E-1,8.383001292E0,1.175953269E0,1.260867357E0,6.235560775E-2
8.394188292E0,8.198451233E-1,-9.919123077E0,-5.224136353E-1,8.392947292E0,1.171908259E0,1.233795404E0,1.762741655E-1
8.404133292E0,3.670367432E-1,-1.013377670E1,-1.937570801E0,8.402892292E0,1.097575188E0,1.083914518E0,3.496981561E-1
8.414079292E0,-3.143463135E-2,-1.008183472E1,-2.877915344E0,8.412837292E0,9.263507724E-1,8.751586676E-1,5.475787520E-1
8.424024292E0,-3.255729675E-1,-9.632918243E0,-2.747985535E0,8.422782292E0,7.353594899E-1,7.565489411E-1,7.345947027E-1
8.433969292E0,-2.619552612E-1,-8.947194214E0,-2.130968628E0,8.432727292E0,5.948897004E-1,6.947017908E-1,8.718281984E-1
8.443914292E0,-3.936813354E-2,-8.450976105E0,-1.671424255E0,8.442672292E0,4.935846925E-1,6.085610390E-1,9.632534385E-1
8.453859292E0,3.939807129E-1,-8.292455750E0,-1.303938446E0,8.452618292E0,4.540476799E-1,5.056331158E-1,1.006928086E0
8.463804292E0,9.812095642E-1,-8.433312836E0,-1.164578247E0,8.462563292E0,4.193829298E-1,4.526489973E-1,9.962136745E-1
8.473750292E0,1.432970123E0,-8.974886627E0,-1.360820160E0,8.472508292E0,3.597767055E-1,4.093867540E-1,9.280264378E-1
8.483695292E0,1.778900757E0,-9.293424225E0,-1.423689423E0,8.482453292E0,2.962680459E-1,3.549402654E-1,8.317528963E-1
8.493640292E0,2.257305908E0,-9.323811035E0,-1.520538025E0,8.492398292E0,2.735526264E-1,2.415088415E-1,7.307160497E-1
8.503585292E0,2.861748962E0,-9.436077576E0,-1.660646667E0,8.502344292E0,3.437016308E-1,1.593604386E-1,5.785648823E-1
8.513530292E0,3.027753754E0,-9.395062866E0,-1.607656860E0,8.512289292E0,3.479721844E-1,2.797290385E-1,4.259072542E-1
8.523476292E0,2.753823395E0,-9.557475128E0,-1.578467560E0,8.522234292E0,3.192656934E-1,3.418219984E-1,3.395547867E-1
8.533421292E0,2.529739380E0,-9.824070740E0,-1.231040039E0,8.532179292E0,3.262162507E-1,2.886859775E-1,3.012306690E-1
8.543366292E0,2.653831329E0,-1.018931122E1,-5.960604858E-1,8.542124292E0,4.064418674E-1,2.342413813E-1,2.765913606E-1
8.553311292E0,3.367397461E0,-1.051413574E1,-4.552033997E-1,8.552069292E0,5.131916404E-1,-5.918224156E-2,1.687389761E-1
8.563256292E0,4.658462677E0,-1.058119629E1,-6.180647278E-1,8.562015292E0,5.804239511E-1,-5.091083646E-1,-7.354295347E-3
8.573201292E0,5.361400909E0,-1.088356750E1,-8.449928284E-1,8.571960292E0,5.851514935E-1,-6.480839252E-1,-1.596169174E-1
8.583147292E0,5.203628998E0,-1.129985184E1,-1.606609039E0,8.581905292E0,5.020512938E-1,-5.276762843E-1,-3.010099828E-1
8.593092292E0,3.875141602E0,-1.178110107E1,-2.350112915E0,8.591850292E0,3.704449236E-1,-3.544867635E-1,-4.050630033E-1
8.603037292E0,2.040257263E0,-1.221175552E1,-2.326761475E0,8.601795292E0,2.455786020E-1,-2.801030874E-1,-4.379977882E-1
8.612982292E0,6.276448059E-1,-1.313174240E1,-1.204096069E0,8.611741292E0,3.237309158E-1,-3.549528122E-1,-4.597064257E-1
8.622927292E0,-1.008153534E0,-1.456097031E1,-1.078656921E0,8.621686292E0,3.935009539E-1,-4.953195155E-1,-3.908455968E-1
8.632873292E0,-2.181563416E0,-1.476903763E1,-2.284399567E0,8.631631292E0,1.404025108E-1,-5.200372934E-1,-2.788614631E-1
8.642818292E0,-2.096390533E0,-1.406819504E1,-2.673739929E0,8.641576292E0,-2.040147781E-1,-5.162849426E-1,-2.651083469E-1
8.652763292E0,-1.867067413E0,-1.354413483E1,-1.376088409E0,8.651521292E0,-5.418059826E-1,-4.155158699E-1,-3.508525789E-1
8.662708292E0,-2.129172363E0,-1.265378632E1,-8.637039185E-2,8.661466292E0,-8.641530871E-1,-4.330562353E-1,-4.318302572E-1
8.672653292E0,-2.430645447E0,-1.146106659E1,5.370831299E-1,8.671412292E0,-1.192975760E0,-7.506939769E-1,-4.829510450E-1
8.682598292E0,-2.063608704E0,-1.046413971E1,1.670675812E0,8.681357292E0,-1.340135098E0,-1.131054401E0,-5.810640454E-1
8.692544292E0,-1.880539398E0,-1.049258057E1,7.256909180E-1,8.691302292E0,-1.547574043E0,-1.105973244E0,-7.514427900E-1
8.702489292E0,-2.196382599E0,-1.165356628E1,-2.840642853E0,8.701247292E0,-2.092292070E0,-8.041752577E-1,-8.998551965E-1
8.712434292E0,-2.095642090E0,-1.373873016E1,-3.810326385E0,8.711192292E0,-2.505475760E0,-5.107741356E-1,-1.137266397E0
8.722379292E0,-1.707499237E0,-1.485166580E1,-1.504970398E0,8.721138292E0,-2.589789152E0,-1.417569667E-1,-1.463073254E0
8.732324292E0,-2.968626709E0,-1.620769592E1,9.961784363E-1,8.731083292E0,-2.555312157E0,4.399395287E-1,-1.565140724E0
8.742269292E0,-5.539829865E0,-1.745849487E1,2.588716736E0,8.741028292E0,-2.328180552E0,1.123784661E0,-1.357584596E0
8.752215292E0,-7.679929504E0,-1.712079712E1,3.511697388E0,8.750973292E0,-1.848225117E0,1.589267850E0,-9.787510037E-1
8.762160292E0,-8.411009216E0,-1.557600952E1,3.422033844E0,8.760918292E0,-1.315538883E0,1.698992252E0,-6.328029037E-1
8.772105292E0,-7.146738281E0,-1.291155029E1,2.253863068E0,8.770863292E0,-9.077638388E-1,1.454401255E0,-4.148880839E-1
8.782050292E0,-5.852230225E0,-1.130479156E1,6.963519287E-1,8.780809292E0,-6.658114195E-1,1.143945098E0,-1.603482217E-1
8.791995292E0,-4.407883759E0,-1.030038025E1,-9.202862549E-1,8.790754292E0,-6.113885641E-1,9.402933717E-1,8.176862448E-2
8.801940292E0,-2.941383362E0,-9.369615784E0,-2.461631012E0,8.800699292E0,-7.129042745E-1,8.288805485E-1,3.093072474E-1
8.811886292E0,-1.520837402E0,-8.823401642E0,-4.358037415E0,8.810644292E0,-9.686492085E-1,5.295126438E-1,4.324801564E-1
8.821831292E0,8.348139954E-1,-8.449329529E0,-5.560187531E0,8.820589292E0,-1.264949799E0,6.963849813E-2,3.724615574E-1
8.831776292E0,3.335962830E0,-8.473728790E0,-4.799768829E0,8.830534292E0,-1.444261909E0,-2.343447059E-1,2.094775140E-1
8.841721292E0,5.035079498E0,-8.594377899E0,-3.589385834E0,8.840480292E0,-1.471871972E0,-4.157395661E-1,-3.517671674E-2
8.851666292E0,5.003046112E0,-8.401878204E0,-3.050805817E0,8.850425292E0,-1.421865940E0,-6.084158421E-1,-1.626618654E-1
8.861612292E0,4.298311615E0,-7.583979034E0,-2.415676575E0,8.860370292E0,-1.382844806E0,-9.380108118E-1,-2.345805317E-1
8.871557292E0,3.934717712E0,-6.781797180E0,-2.190694427E0,8.870315292E0,-1.345900059E0,-1.504287243E0,-2.784427106E-1
8.881502292E0,3.800446930E0,-6.324647827E0,-1.322948914E0,8.880260292E0,-1.231153250E0,-2.028862476E0,-3.690498471E-1
8.891447292E0,3.782184906E0,-5.920637970E0,-5.625302124E-1,8.890206292E0,-1.148972034E0,-2.278009892E0,-5.152194500E-1
8.901392292E0,3.309467926E0,-5.453160095E0,-2.158511353E-1,8.900151292E0,-1.071043968E0,-2.227955580E0,-6.452847719E-1
8.911337292E0,2.293380890E0,-5.147196350E0,-6.137237549E-3,8.910096292E0,-9.678028822E-1,-1.971742988E0,-7.242224216E-1
8.921283292E0,1.094523926E0,-4.813540192E0,2.409988403E-2,8.920041292E0,-8.243136406E-1,-1.734119534E0,-7.593947649E-1
8.931228292E0,-9.400451660E-2,-4.400099945E0,-2.814147949E-2,8.929986292E0,-6.562848687E-1,-1.614341378E0,-7.521495819E-1
8.941173292E0,-8.907975769E-1,-3.924688568E0,-6.990463257E-2,8.939931292E0,-4.778027833E-1,-1.627582550E0,-7.572880983E-1
8.951118292E0,-1.108594666E0,-3.451522522E0,1.380130005E-1,8.949877292E0,-2.675455511E-1,-1.671904087E0,-7.845165730E-1
8.961063292E0,-1.377435608E0,-3.325185242E0,7.267387390E-1,8.959822292E0,-3.239456564E-2,-1.660690308E0,-7.876343727E-1
8.971008292E0,-1.823358307E0,-3.564387817E0,7.439529419E-1,8.969767292E0,1.970091313E-1,-1.685928106E0,-7.450495958E-1
8.980954292E0,-1.787283325E0,-3.629502411E0,4.492158508E-1,8.979712292E0,4.469537139E-1,-1.662005544E0,-7.133347988E-1
8.990899292E0,-1.520388336E0,-3.683540039E0,1.112187195E-1,8.989657292E0,7.075721622E-1,-1.478566289E0,-7.210079432E-1
9.000844292E0,-1.272803192E0,-3.750301208E0,-5.905220032E-1,8.999602292E0,8.948706985E-1,-1.155698419E0,-7.732809782E-1
9.010789292E0,-1.246457977E0,-3.889811096E0,-1.605561218E0,9.009548292E0,9.865809679E-1,-8.138962984E-1,-8.268120885E-1
9.020734292E0,-1.704804840E0,-4.461322632E0,-2.416574707E0,9.019493292E0,1.043281794E0,-5.496513247E-1,-7.642318010E-1
9.030680292E0,-2.591710510E0,-6.312373352E0,-3.110381927E0,9.029438292E0,1.101605058E0,-5.102607608E-1,-5.518064499E-1
9.040625292E0,-1.911375275E0,-7.430697784E0,-4.437971191E0,9.039383292E0,1.009728432E0,-8.393603563E-1,-4.744735658E-1
9.050570292E0,-1.181792450E0,-8.974587250E0,-5.618266754E0,9.049328292E0,7.843146324E-1,-1.394822359E0,-3.408191502E-1
9.060515292E0,-8.068222046E-2,-1.076905563E1,-5.821843414E0,9.059273292E0,5.939121842E-1,-1.744885325E0,-1.820223033E-1
9.070460292E0,1.620530090E0,-1.223944794E1,-6.609954529E0,9.069219292E0,4.595050216E-1,-1.711762190E0,-9.238922596E-2
9.080405292E0,1.996997223E0,-1.464015564E1,-6.535110168E0,9.079164292E0,3.285515308E-1,-1.355674386E0,-6.053782254E-2
9.090351292E0,-1.353186035E-1,-1.773152710E1,-5.645510101E0,9.089109292E0,7.664810121E-2,-9.679657221E-1,-1.805967093E-2
9.100296292E0,-1.990710297E0,-1.821921295E1,-5.649252319E0,9.099054292E0,-2.269493341E-1,-7.932682037E-1,-6.010112911E-2
9.110241292E0,-1.898951111E0,-1.582090027E1,-6.533912659E0,9.108999292E0,-4.810466766E-1,-6.974214911E-1,-1.673419029E-1
9.120186292E0,-1.137933655E0,-1.378228958E1,-8.462951202E0,9.118944292E0,-7.216930985E-1,-6.005263925E-1,-3.050283790E-1
9.130131292E0,1.110690308E-1,-1.152573212E1,-1.001791763E1,9.128890292E0,-8.376004100E-1,-2.927338779E-1,-4.444023967E-1
9.140076292E0,1.112037506E0,-8.417745209E0,-9.750124512E0,9.138835292E0,-6.548811793E-1,2.568381727E-1,-4.727466702E-1
9.150022292E0,6.721023560E-1,-6.714586945E0,-9.517657928E0,9.148780292E0,-7.690894008E-1,6.559039950E-1,-4.265790582E-1
9.159967292E0,-7.548802185E-1,-7.511529694E0,-8.701555023E0,9.158725292E0,-1.272449493E0,6.958828568E-1,-5.570691824E-1
9.169912292E0,-2.354453888E0,-9.748028870E0,-7.337741089E0,9.168670292E0,-1.601916552E0,3.291179240E-1,-5.953084826E-1
9.179857292E0,-2.006427612E0,-1.367840561E1,-5.405858459E0,9.178616292E0,-1.459414840E0,8.320138603E-2,-5.154941082E-1
9.189802292E0,-9.921368408E-1,-1.929173264E1,-1.720372467E0,9.188561292E0,-1.175143719E0,8.263595402E-2,-3.269991279E-1
9.199747292E0,-1.145268402E0,-2.450628891E1,1.760938110E0,9.198506292E0,-5.803620815E-1,1.997250319E-1,2.594484249E-3
9.209693292E0,-2.722688141E0,-2.387894348E1,3.116668854E0,9.208451292E0,-1.564504579E-2,3.837159276E-1,3.325949907E-1
9.219638292E0,-2.059866486E0,-1.475885880E1,2.268682251E0,9.218396292E0,3.766915798E-1,5.052202940E-1,3.472746015E-1
9.229583292E0,-3.160527649E0,-7.533384247E0,2.605631561E0,9.228341292E0,6.854532957E-1,7.275814414E-1,4.206951559E-1
9.239528292E0,-4.398004303E0,-4.233496399E0,1.881736908E0,9.238287292E0,8.803197145E-1,1.014630795E0,5.546535254E-1
9.249473292E0,-4.446802826E0,-4.011208649E0,4.102967834E-1,9.248232292E0,8.675954938E-1,1.195906520E0,7.453077435E-1
9.259418292E0,-3.028502197E0,-5.975723419E0,1.465452576E-1,9.258177292E0,8.613850474E-1,1.272392511E0,9.931505919E-1
9.269364292E0,-1.241069183E0,-7.726033630E0,9.789642334E-1,9.268122292E0,8.924433589E-1,1.330336809E0,1.187580585E0
9.279309292E0,-1.570234680E-1,-8.695268097E0,1.196611633E0,9.278067292E0,9.728047848E-1,1.297064066E0,1.367223263E0
9.289254292E0,1.564247131E-1,-9.531728668E0,1.334325256E0,9.288012292E0,1.093575120E0,1.058065891E0,1.557723284E0
9.299197667E0,9.836045837E-1,-1.022104523E1,9.876461792E-1,9.297956667E0,1.165426970E0,4.608419836E-1,1.665552020E0
9.309142667E0,2.814297638E0,-1.054586975E1,8.083190918E-1,9.307901667E0,1.237680674E0,-2.520328164E-1,1.592854023E0
9.319087667E0,4.211043091E0,-1.103999222E1,1.054856415E0,9.317846667E0,1.373221993E0,-7.115620971E-1,1.371403694E0
9.329033667E0,4.576433258E0,-1.164218994E1,1.604663086E0,9.327791667E0,1.604394555E0,-7.089697123E-1,1.075633645E0
9.338978667E0,3.905977478E0,-1.163994461E1,2.003134460E0,9.337736667E0,1.881908178E0,-3.241024315E-1,7.884330750E-1
9.348923667E0,2.784958649E0,-1.065214874E1,9.957293701E-1,9.347681667E0,2.056706429E0,2.230190039E-1,5.451177359E-1
9.358868667E0,1.554816742E0,-9.526788940E0,-5.396278381E-1,9.357627667E0,2.114530325E0,6.877861619E-1,3.101015389E-1
9.368813667E0,7.581733704E-1,-8.507109375E0,-2.163151703E0,9.367572667E0,2.002450228E0,9.611597657E-1,3.492281586E-2
9.378758667E0,4.685256958E-2,-7.853718109E0,-3.547922058E0,9.377517667E0,1.714544535E0,1.075258017E0,-2.177579105E-1
9.388704667E0,-6.685098267E-1,-7.258555756E0,-3.677402802E0,9.387462667E0,1.363919139E0,1.207245588E0,-4.069322050E-1
9.398649667E0,-1.667682037E0,-6.909032593E0,-2.678529968E0,9.397407667E0,1.071148515E0,1.414157510E0,-4.098699391E-1
9.408594667E0,-2.322869568E0,-6.783443756E0,-1.530417480E0,9.407352667E0,8.858211637E-1,1.595871091E0,-2.841691375E-1
9.418539667E0,-1.944306793E0,-6.478527832E0,-5.099894714E-1,9.417298667E0,7.940451503E-1,1.648842335E0,-1.728996038E-1
9.428484667E0,-1.381028137E0,-6.237229614E0,1.839674377E-1,9.427243667E0,7.522492409E-1,1.516994476E0,-7.488700747E-2
9.438429667E0,-6.810836792E-1,-5.895789642E0,7.553292847E-1,9.437188667E0,7.492673397E-1,1.316476226E0,-3.530205041E-2
9.448375667E0,-3.832031250E-2,-5.907016296E0,1.314716034E0,9.447133667E0,8.000015616E-1,1.154498577E0,-4.396777228E-2
9.458320667E0,1.366658020E-1,-6.488257599E0,1.600322113E0,9.457078667E0,8.738291264E-1,1.063554883E0,-4.921366647E-2
9.468265667E0,1.826202393E-2,-7.558681641E0,1.397942963E0,9.467023667E0,9.226007462E-1,9.979254007E-1,-6.386876106E-2
9.478210667E0,-1.686991882E-1,-8.690777435E0,7.815248108E-1,9.476969667E0,9.437728524E-1,8.950636983E-1,-8.141978830E-2
9.488155667E0,-4.543052673E-1,-9.419911194E0,1.848655701E-1,9.486914667E0,9.557697773E-1,7.856283188E-1,-5.675350875E-2
9.498100667E0,-9.017248535E-1,-9.642648010E0,-3.336561584E-1,9.496859667E0,9.302348495E-1,7.266308069E-1,3.992402926E-2
9.508046667E0,-1.442999268E0,-9.795929260E0,-7.324269104E-1,9.506804667E0,8.846309781E-1,7.017024159E-1,1.978542209E-1
9.517991667E0,-2.105222168E0,-9.780361633E0,-1.111438751E0,9.516749667E0,8.553225994E-1,7.365006208E-1,4.092197418E-1
9.527936667E0,-2.741698608E0,-9.594298553E0,-1.585053864E0,9.526694667E0,7.561248541E-1,7.965515256E-1,6.548075080E-1
9.537881667E0,-2.831212463E0,-9.138346710E0,-1.727707214E0,9.536639667E0,5.669008493E-1,8.692712784E-1,8.679128289E-1
9.547826667E0,-2.077978821E0,-8.441695404E0,-1.349892883E0,9.546585667E0,3.724917471E-1,9.417085648E-1,1.009712100E0
9.557771667E0,-7.140151978E-1,-8.053552551E0,-1.073567505E0,9.556530667E0,2.352036685E-1,9.717133641E-1,1.085486174E0
9.567717667E0,7.497908020E-1,-8.252937927E0,-1.019380188E0,9.566475667E0,1.491386294E-1,9.972862005E-1,1.092751622E0
9.577662667E0,2.331102448E0,-8.730744324E0,-1.656754761E0,9.576420667E0,6.308124214E-2,9.772720337E-1,1.023730159E0
9.587607667E0,3.587290192E0,-9.034462738E0,-2.014810181E0,9.586365667E0,-3.239247203E-2,9.682493806E-1,9.229372144E-1
9.597552667E0,4.629572754E0,-9.191037140E0,-2.175426178E0,9.596310667E0,-5.595479161E-2,8.891571760E-1,7.680453658E-1
9.607497667E0,5.370232544E0,-9.196425934E0,-2.247725830E0,9.606256667E0,-2.266258374E-2,7.648230791E-1,5.454562306E-1
9.617442667E0,5.203030243E0,-8.787775726E0,-2.574047241E0,9.616201667E0,-1.656820625E-2,6.261749268E-1,3.422120214E-1
9.627388667E0,4.100572815E0,-8.225245514E0,-2.290836182E0,9.626146667E0,-4.424874205E-3,5.556507111E-1,2.357605249E-1
9.637333667E0,3.285068665E0,-7.996371460E0,-1.878743134E0,9.636091667E0,3.805147856E-2,2.941943109E-1,1.860795170E-1
9.647278667E0,3.410358124E0,-8.385562134E0,-8.346643066E-1,9.646036667E0,1.962361038E-1,5.238202587E-2,1.136332452E-1
9.657223667E0,4.487069092E0,-9.162596283E0,-1.285826111E-1,9.655981667E0,3.827793300E-1,-2.505647838E-1,-5.116528645E-2
9.667168667E0,4.846621399E0,-9.808503113E0,1.562750244E-1,9.665927667E0,5.474542975E-1,-4.984748065E-1,-1.870124489E-1
9.677113667E0,4.289180603E0,-1.054916290E1,-3.341052246E-1,9.675872667E0,6.723200679E-1,-6.192611456E-1,-2.322446406E-1
9.687059667E0,3.531905365E0,-1.158306290E1,-1.304237823E0,9.685817667E0,7.448810339E-1,-6.407744884E-1,-2.480368316E-1
9.697004667E0,2.608625336E0,-1.256726624E1,-1.881138153E0,9.695762667E0,7.409422398E-1,-5.963132977E-1,-2.591299713E-1
9.706949667E0,1.850002899E0,-1.365355728E1,-1.922152863E0,9.705707667E0,7.653466463E-1,-6.264655590E-1,-3.108641803E-1
9.716894667E0,1.107546844E0,-1.536345154E1,-1.725012817E0,9.715652667E0,7.955921292E-1,-6.014201045E-1,-3.504571319E-1
9.726839667E0,1.881587219E-1,-1.647294434E1,-1.839375000E0,9.725598667E0,6.456085443E-1,-3.682174087E-1,-3.274409473E-1
9.736784667E0,-3.345542908E-1,-1.609587845E1,-2.110012207E0,9.735543667E0,4.625058174E-1,-1.883144826E-1,-3.499861956E-1
9.746729667E0,-1.091380463E0,-1.533306473E1,-3.168910217E0,9.745488667E0,1.553561538E-1,-2.791802585E-1,-3.961206079E-1
9.756675667E0,-1.745669861E0,-1.452564377E1,-3.544030151E0,9.755433667E0,-2.833407819E-1,-4.945127964E-1,-3.747088015E-1
9.766620667E0,-9.282197571E-1,-1.366822678E1,-1.639839935E0,9.765378667E0,-6.085785031E-1,-7.020570636E-1,-4.044154286E-1
9.776565667E0,1.350192261E-1,-1.264345779E1,-8.756790161E-2,9.775323667E0,-8.217229843E-1,-9.542451501E-1,-5.292640924E-1
9.786510667E0,3.442840576E-2,-1.125344833E1,9.270222473E-1,9.785269667E0,-1.029734492E0,-1.100965619E0,-6.583114266E-1
9.796455667E0,-8.310717773E-1,-1.032522858E1,1.581012268E0,9.795214667E0,-1.161776423E0,-1.052330971E0,-8.338725567E-1
9.806400667E0,-1.709445190E0,-9.994566193E0,1.072369995E0,9.805159667E0,-1.341700077E0,-8.336111903E-1,-1.051124692E0
9.816346667E0,-2.876119080E0,-1.076172089E1,-1.926493835E0,9.815104667E0,-1.907496095E0,-4.945923984E-1,-1.224519372E0
9.826291667E0,-4.552632751E0,-1.247924927E1,-4.667444000E0,9.825049667E0,-2.470528841E0,-2.558117807E-1,-1.295237064E0
9.836236667E0,-5.441783752E0,-1.453103256E1,-2.946622467E0,9.834994667E0,-2.666921854E0,-1.379355602E-2,-1.356964111E0
9.846181667E0,-5.690716095E0,-1.586101685E1,2.496807861E-1,9.844940667E0,-2.596030474E0,3.269726932E-1,-1.357848048E0
9.856126667E0,-7.089856567E0,-1.660721512E1,2.937042389E0,9.854885667E0,-2.351654291E0,8.017125726E-1,-1.116968632E0
9.866071667E0,-8.489446106E0,-1.674971878E1,4.477638702E0,9.864830667E0,-1.959865808E0,1.207646728E0,-6.643598080E-1
9.876017667E0,-8.114176483E0,-1.499387009E1,4.162543945E0,9.874775667E0,-1.533288956E0,1.332393408E0,-3.156822324E-1
9.885962667E0,-5.385800171E0,-1.144340332E1,2.308649139E0,9.884720667E0,-1.283961177E0,1.069817305E0,-3.329849243E-1
9.895907667E0,-3.135080566E0,-1.011057495E1,8.792715454E-1,9.894665667E0,-1.028896451E0,7.983363271E-1,-2.972770035E-1
9.905852667E0,-2.296524353E0,-1.031519943E1,-3.796105957E-1,9.904610667E0,-7.904742360E-1,5.551656485E-1,-1.105528474E-1
9.915797667E0,-1.029559021E0,-1.077264816E1,-2.841840363E0,9.914556667E0,-8.287843466E-1,3.143572807E-1,6.167723611E-2
9.925742667E0,-4.715194702E-2,-1.085407883E1,-5.077591095E0,9.924501667E0,-1.115664721E0,1.856338605E-2,1.499525011E-1
9.935687667E0,1.738933868E0,-1.112067444E1,-5.974675598E0,9.934446667E0,-1.455411077E0,-2.545762658E-1,6.280853599E-2
9.945633667E0,3.336112518E0,-1.075947556E1,-5.088218994E0,9.944391667E0,-1.674739718E0,-4.257165790E-1,-1.253288686E-1
9.955578667E0,3.822002106E0,-9.541458435E0,-3.142864380E0,9.954336667E0,-1.735662222E0,-4.055545926E-1,-3.250241578E-1
9.965523667E0,2.576442261E0,-8.639733582E0,-1.419947205E0,9.964281667E0,-1.674994349E0,-3.053005934E-1,-3.594232202E-1
9.975468667E0,1.641636200E0,-7.507787476E0,-9.343569946E-1,9.974227667E0,-1.583197236E0,-2.573804855E-1,-3.454506695E-1
9.985413667E0,1.388811951E0,-6.708749084E0,-1.289119263E0,9.984172667E0,-1.500468373E0,-3.909472227E-1,-3.390326798E-1
9.995358667E0,1.180445251E0,-6.206543427E0,-1.055904236E0,9.994117667E0,-1.389709115E0,-5.016987920E-1,-3.610730171E-1
1.000530467E1,9.228309631E-1,-5.807622986E0,-7.611671448E-1,1.000406267E1,-1.238331914E0,-5.545755625E-1,-3.954055309E-1
1.001524967E1,8.643026733E-1,-5.512885895E0,-7.780819702E-1,1.001400767E1,-1.089652419E0,-5.468933582E-1,-4.450747967E-1
1.002519467E1,6.385720825E-1,-5.680836639E0,-7.282356262E-1,1.002395267E1,-9.496802688E-1,-5.518696308E-1,-4.756194353E-1
1.003513967E1,6.182144165E-1,-5.548661499E0,-9.645941162E-1,1.003389767E1,-8.288680911E-1,-6.311820149E-1,-5.051839352E-1
1.004508467E1,8.376580811E-1,-5.049449615E0,-9.880952454E-1,1.004384367E1,-6.817675829E-1,-7.630493641E-1,-5.304652452E-1
1.005502967E1,1.076112213E0,-4.349205780E0,-6.872209167E-1,1.005378867E1,-5.014236569E-1,-9.529372454E-1,-5.529969335E-1
