"time_acc","acc_x","acc_y","acc_z","time_gyro","gyro_x","gyro_y","gyro_z"
1.704033336E-2,-8.942404175E-1,-1.317560120E1,9.044940948E0,2.327933337E-2,2.848698378E0,3.569174528E0,1.761633277E0
2.702233335E-2,1.210981750E-1,-1.450408859E1,5.486241302E0,3.326133336E-2,2.040910482E0,1.894451499E0,1.431429744E0
3.700433334E-2,1.050814819E0,-1.503383698E1,-2.269281006E-1,4.324333335E-2,1.335420489E0,3.082390428E-1,9.094893336E-1
4.698633333E-2,2.765798492E0,-1.463776062E1,-4.356091461E0,5.322533334E-2,1.043861151E0,-6.288338304E-1,4.981065989E-1
5.696833332E-2,3.760330353E0,-1.366747833E1,-4.489314423E0,6.320733333E-2,1.132776618E0,-7.904412150E-1,3.340924978E-1
6.695033330E-2,3.608096924E0,-1.259181519E1,-2.299967194E0,7.318933331E-2,1.354952455E0,-5.949941874E-1,3.376717865E-1
7.693233329E-2,3.495980072E0,-1.159189453E1,-3.384461975E-1,8.317133330E-2,1.545717716E0,-2.883495092E-1,3.167832792E-1
8.691433328E-2,3.612288208E0,-1.097921860E1,9.195378113E-1,9.315333329E-2,1.653742194E0,4.016284272E-2,2.015696019E-1
9.689733328E-2,3.548221436E0,-1.069121750E1,1.649569702E0,1.031363333E-1,1.689753413E0,2.821629047E-1,5.509123951E-2
1.068793334E-1,2.909050598E0,-1.050769913E1,1.654808807E0,1.131183334E-1,1.649469376E0,2.824755609E-1,-1.123480797E-1
1.168613334E-1,1.770817566E0,-1.022718246E1,1.251846771E0,1.231003334E-1,1.580512881E0,1.245195866E-1,-2.772388160E-1
1.268433334E-1,2.788700867E-1,-9.658814392E0,6.177653503E-1,1.330823334E-1,1.553346872E0,-6.529694796E-2,-3.574228585E-1
1.368253333E-1,-1.236728210E0,-8.950337677E0,3.992198181E-1,1.430643334E-1,1.585096955E0,-2.547252476E-1,-3.159959018E-1
1.468073333E-1,-2.358645172E0,-8.160579987E0,3.213816833E-1,1.530463333E-1,1.640371084E0,-3.737533689E-1,-1.901341230E-1
1.567893333E-1,-2.886597290E0,-7.535629578E0,1.459465027E-1,1.630283333E-1,1.645581007E0,-4.195704460E-1,1.148240641E-3
1.667713333E-1,-3.135529633E0,-7.378456421E0,-3.492237854E-1,1.730103333E-1,1.639354587E0,-3.394524455E-1,2.249568254E-1
1.767533333E-1,-3.076851654E0,-7.521708527E0,-5.852828979E-1,1.829923333E-1,1.617419958E0,-6.984906644E-2,3.773168921E-1
1.867353333E-1,-2.619402924E0,-8.120463409E0,-4.718188477E-1,1.929743333E-1,1.636003494E0,2.360658497E-1,4.271747172E-1
1.967173333E-1,-1.837429047E0,-8.779542847E0,3.697311401E-2,2.029563333E-1,1.615334034E0,4.366717041E-1,3.715595305E-1
2.066993334E-1,-8.689430237E-1,-9.303603058E0,1.287322998E-1,2.129383333E-1,1.536070585E0,5.248013139E-1,2.552648783E-1
2.166813334E-1,-2.646496582E-1,-9.388476563E0,-1.904040527E-1,2.229203334E-1,1.433893323E0,6.692356467E-1,2.013115287E-1
2.266633334E-1,-2.996768188E-1,-9.060658264E0,-4.933740234E-1,2.329023334E-1,1.269977093E0,7.497099638E-1,1.918064356E-1
2.366453334E-1,-4.420307922E-1,-8.819809113E0,-7.559280396E-1,2.428853334E-1,1.111191630E0,8.375429511E-1,2.835107446E-1
2.466283333E-1,-8.568182373E-1,-8.462053070E0,-4.590953064E-1,2.528673334E-1,9.170322418E-1,8.102167845E-1,3.583836555E-1
2.566103333E-1,-9.045689392E-1,-8.332123260E0,-1.323248291E-1,2.628493333E-1,7.704980969E-1,8.353770375E-1,4.574059248E-1
2.665923333E-1,-9.163943481E-1,-7.830067291E0,3.611988831E-1,2.728313333E-1,6.536939740E-1,8.900783658E-1,4.944366515E-1
2.765743333E-1,-9.092092896E-1,-7.702233124E0,7.408094788E-1,2.828133333E-1,6.268069744E-1,8.979455829E-1,4.826134443E-1
2.865563333E-1,-6.985972595E-1,-7.775430908E0,1.118474121E0,2.927953333E-1,7.411798835E-1,8.117119074E-1,4.772437215E-1
2.965383333E-1,-6.104306030E-1,-7.626490631E0,2.075883179E0,3.027773333E-1,9.669144154E-1,6.391611099E-1,4.452593327E-1
3.065203333E-1,-3.324586487E-1,-7.565567322E0,2.900368652E0,3.127593333E-1,1.248538136E0,4.747905135E-1,4.177216887E-1
3.165023334E-1,-3.505709839E-1,-7.743397522E0,3.243754578E0,3.227413333E-1,1.542211413E0,2.728643715E-1,4.210672677E-1
3.264843334E-1,-5.634283447E-1,-7.991581421E0,3.003653870E0,3.327233334E-1,1.784457803E0,-2.055764943E-2,4.257507026E-1
3.364663334E-1,-7.117698669E-1,-8.255033569E0,2.309547272E0,3.427053334E-1,1.954639316E0,-1.853599101E-1,4.365449250E-1
3.464483334E-1,-8.416996765E-1,-8.838370514E0,1.723815308E0,3.526873334E-1,2.059167385E0,-1.036181673E-1,4.886496663E-1
3.564303333E-1,-1.057401123E0,-9.717192993E0,1.205742645E0,3.626693333E-1,2.068118572E0,1.237994507E-1,5.518031120E-1
3.664123333E-1,-8.891510010E-1,-1.054407349E1,2.609074402E-1,3.726513333E-1,1.949471712E0,4.092535675E-1,6.011706591E-1
3.763943333E-1,-2.356100464E-1,-1.104074066E1,-1.009051666E0,3.826333333E-1,1.705634356E0,6.695317626E-1,6.336303353E-1
3.863763333E-1,7.116201782E-1,-1.096978821E1,-2.389780426E0,3.926153333E-1,1.341188192E0,7.989802957E-1,5.943117142E-1
3.963583333E-1,1.554966431E0,-1.098730179E1,-3.338208160E0,4.025983333E-1,9.617726803E-1,7.494575977E-1,4.229057431E-1
4.063413333E-1,2.194436646E0,-1.153770721E1,-3.287463684E0,4.125803333E-1,6.904383898E-1,6.448582411E-1,1.927271485E-1
4.163233333E-1,2.196831665E0,-1.236204300E1,-2.219584351E0,4.225623333E-1,5.341862440E-1,6.736313105E-1,-1.017002668E-2
4.263053334E-1,1.952389984E0,-1.306273590E1,-9.291178894E-1,4.325443333E-1,4.092768431E-1,7.254529595E-1,-1.520541906E-1
4.362873334E-1,1.433119812E0,-1.289583298E1,-4.176315308E-1,4.425263334E-1,2.092222720E-1,7.114593387E-1,-2.075495124E-1
4.462693334E-1,3.888912964E-1,-1.207254501E1,-8.156538391E-1,4.525083334E-1,-5.904966593E-2,6.844521761E-1,-1.828217953E-1
4.562513334E-1,-7.656578064E-1,-1.143442200E1,-1.142574005E0,4.624903334E-1,-2.431951612E-1,6.363369823E-1,-1.343000084E-1
4.662333333E-1,-1.503024445E0,-1.113684082E1,-8.484356689E-1,4.724723333E-1,-2.400363833E-1,5.653759837E-1,-7.019452751E-2
4.762153333E-1,-1.950144653E0,-1.095706467E1,-3.502716064E-1,4.824543333E-1,-1.524641365E-1,4.886476398E-1,-5.472765490E-2
4.861973333E-1,-2.080523529E0,-1.091994186E1,-2.567161560E-1,4.924363333E-1,-9.325327724E-2,4.576684237E-1,-3.298081458E-2
4.961793333E-1,-1.845212860E0,-1.088925568E1,-7.252418518E-1,5.024183333E-1,-2.632073760E-1,3.641104996E-1,-4.194329306E-2
5.061613333E-1,-1.336271210E0,-1.118773499E1,-1.656754761E0,5.124003333E-1,-6.215295792E-1,1.656062156E-1,1.328134723E-2
5.161433333E-1,-7.967930603E-1,-1.183573746E1,-2.202669525E0,5.223823333E-1,-1.100666404E0,-1.406911612E-1,3.508093208E-2
5.261253334E-1,-3.065625000E-1,-1.318518127E1,-1.921703796E0,5.323643333E-1,-1.475975871E0,-3.893755376E-1,-1.549355965E-2
5.361073334E-1,2.924917603E-1,-1.452010529E1,-8.960366821E-1,5.423463334E-1,-1.631812930E0,-4.593253732E-1,-2.228898704E-1
5.460903334E-1,1.179996185E0,-1.499177444E1,6.107299805E-2,5.523293334E-1,-1.710219860E0,-2.412822843E-1,-4.901947975E-1
5.560723334E-1,1.880838776E0,-1.415561325E1,4.685256958E-2,5.623113334E-1,-1.960921645E0,4.640160874E-2,-6.669470072E-1
5.660543334E-1,2.025887146E0,-1.268237686E1,-9.876461792E-1,5.722933334E-1,-2.472067833E0,2.017520517E-1,-7.006352544E-1
5.760363333E-1,1.629212036E0,-1.164368683E1,-2.101929016E0,5.822753333E-1,-3.172913551E0,1.545108557E-1,-6.396749616E-1
5.860183333E-1,1.124012604E0,-1.150268005E1,-2.384840698E0,5.922573333E-1,-3.850731373E0,-1.767717302E-1,-5.174372196E-1
5.960003333E-1,4.032614136E-1,-1.181552948E1,-1.640438690E0,6.022393333E-1,-4.213344097E0,-8.483251929E-1,-3.851768672E-1
6.059823333E-1,-7.056326294E-1,-1.255304581E1,2.751278687E-1,6.122213333E-1,-4.163524151E0,-1.544777274E0,-3.468206823E-1
6.159643333E-1,-1.512604523E0,-1.367810623E1,2.761307831E0,6.222033333E-1,-3.853350401E0,-1.928066492E0,-4.635488689E-1
6.259463333E-1,-1.631906433E0,-1.488818985E1,4.035009155E0,6.321853333E-1,-3.566407919E0,-1.867824078E0,-5.532473326E-1
6.359283334E-1,-2.684068451E0,-1.647698593E1,3.263663177E0,6.421673333E-1,-3.426318645E0,-1.375525475E0,-4.353504777E-1
6.459103334E-1,-5.031486969E0,-1.778766037E1,1.551373901E0,6.521493334E-1,-3.241421938E0,-6.459347010E-1,-2.613693476E-1
6.558923334E-1,-7.137307892E0,-1.814751205E1,1.506916351E0,6.621313334E-1,-2.929806709E0,1.441423744E-1,-1.820023507E-1
6.658743334E-1,-7.877668304E0,-1.726330078E1,2.695444794E0,6.721133334E-1,-2.671774864E0,5.036209226E-1,-2.244672626E-1
6.758563333E-1,-6.631958771E0,-1.449390976E1,2.544109497E0,6.820953334E-1,-2.547288418E0,5.851447582E-1,-2.932545841E-1
6.858383333E-1,-4.444856873E0,-1.161000687E1,1.769320679E0,6.920783333E-1,-2.448598623E0,6.834708452E-1,-3.699301779E-1
6.958213333E-1,-2.526446228E0,-9.867181091E0,1.723815308E0,7.020603333E-1,-2.307990313E0,7.998333573E-1,-4.020690620E-1
7.058033333E-1,-1.193917236E0,-8.757688293E0,1.830543365E0,7.120423333E-1,-2.160192013E0,7.931927443E-1,-4.215823114E-1
7.157853333E-1,-1.709445190E-1,-8.116122437E0,1.336271210E0,7.220243333E-1,-2.067787886E0,5.098031759E-1,-3.872638047E-1
7.257673333E-1,4.264631653E-1,-8.095166016E0,3.002755737E-1,7.320063333E-1,-2.024459124E0,6.353493035E-2,-3.337379992E-1
7.357493333E-1,2.736309814E-1,-8.671018524E0,-5.252577209E-1,7.419883333E-1,-1.992698789E0,-4.079103172E-1,-3.391555250E-1
7.457313334E-1,1.282832336E-1,-9.356143799E0,-7.946974182E-1,7.519703333E-1,-1.968234420E0,-9.040686488E-1,-4.404946566E-1
7.557133334E-1,4.409829712E-1,-1.001477417E1,-1.138831787E0,7.619523334E-1,-1.890412927E0,-1.258184433E0,-5.909772515E-1
7.656953334E-1,8.196954346E-1,-1.042851379E1,-9.990225220E-1,7.719343334E-1,-1.848321676E0,-1.278880358E0,-7.952419519E-1
7.756773334E-1,1.505868530E0,-1.046863037E1,-9.648934937E-1,7.819163334E-1,-1.828198552E0,-1.081394076E0,-9.544936419E-1
7.856593333E-1,1.814526672E0,-1.034468811E1,-1.133592682E0,7.918983334E-1,-1.758333802E0,-9.181289673E-1,-1.037658453E0
7.956413333E-1,1.736239471E0,-9.923314362E0,-4.930746460E-1,8.018803333E-1,-1.678645492E0,-8.134102225E-1,-1.092740774E0
8.056233333E-1,1.678759003E0,-9.228609009E0,4.640350342E-2,8.118623333E-1,-1.624033689E0,-8.961397409E-1,-1.082677960E0
8.156053333E-1,1.325044556E0,-8.408015442E0,1.947450256E-1,8.218443333E-1,-1.624517560E0,-1.205206513E0,-9.963510036E-1
8.255873333E-1,7.688012695E-1,-7.433392181E0,1.218466187E-1,8.318263333E-1,-1.623898149E0,-1.559569597E0,-8.824055791E-1
8.355693333E-1,-4.954696655E-2,-6.195017395E0,4.087998962E-1,8.418093333E-1,-1.558962941E0,-1.878251791E0,-8.083487749E-1
8.455523333E-1,-5.542973328E-1,-5.097050629E0,1.126707001E0,8.517913333E-1,-1.432147980E0,-2.307950258E0,-7.299461365E-1
8.555343334E-1,-1.040336609E0,-4.108506317E0,1.405277710E0,8.617733333E-1,-1.245325565E0,-2.554099560E0,-6.975987554E-1
8.655163334E-1,-1.352587280E0,-3.423830109E0,1.600621490E0,8.717553334E-1,-1.017116666E0,-2.524476528E0,-6.703194380E-1
8.754983334E-1,-1.744023285E0,-2.932102661E0,1.787582703E0,8.817373334E-1,-7.491582632E-1,-2.222691298E0,-6.534967422E-1
8.854803334E-1,-2.145937500E0,-2.562221832E0,1.778002625E0,8.917193334E-1,-4.807182848E-1,-1.862152696E0,-6.330599189E-1
8.954623333E-1,-2.486629028E0,-2.536175995E0,1.290466461E0,9.017013334E-1,-2.211264521E-1,-1.533025384E0,-5.703470707E-1
9.054443333E-1,-2.816243591E0,-2.656525726E0,7.200027466E-1,9.116833333E-1,6.553301215E-2,-1.123555541E0,-5.089699626E-1
9.154263333E-1,-3.070265350E0,-2.817291412E0,6.625222778E-1,9.216653333E-1,4.015341699E-1,-8.078597188E-1,-4.553584754E-1
9.254083333E-1,-3.110082550E0,-2.996319122E0,7.309300232E-1,9.316473333E-1,7.462558746E-1,-6.678733230E-1,-4.317865968E-1
9.353903333E-1,-3.075354767E0,-3.198398895E0,7.815248108E-1,9.416293333E-1,1.085905433E0,-5.966839194E-1,-4.299171567E-1
9.453723333E-1,-3.136128387E0,-3.463946686E0,7.933502197E-1,9.516113333E-1,1.426042199E0,-6.360299587E-1,-4.304902554E-1
9.553543334E-1,-3.069067841E0,-3.441493378E0,6.629713440E-1,9.615933333E-1,1.747573018E0,-6.532346010E-1,-4.080615342E-1
9.653363334E-1,-3.196153564E0,-3.651057587E0,3.855981445E-1,9.715753334E-1,2.028126240E0,-6.350534558E-1,-3.391253352E-1
9.753183334E-1,-3.406915283E0,-4.008813629E0,-5.219645691E-1,9.815573334E-1,2.261785746E0,-5.812740922E-1,-2.244651765E-1
9.853003334E-1,-3.723806305E0,-4.702321472E0,-1.928739166E0,9.915403334E-1,2.470462322E0,-5.735354424E-1,-4.531753063E-2
9.952833334E-1,-4.083059235E0,-5.844296722E0,-3.298540649E0,1.001522333E0,2.597751141E0,-5.167372823E-1,1.312220097E-1
1.005265333E0,-4.388573914E0,-7.371720428E0,-4.800217896E0,1.011504333E0,2.515893221E0,-2.747033834E-1,2.801952660E-1
1.015247333E0,-4.673880615E0,-9.383686523E0,-6.885381775E0,1.021486333E0,2.156830072E0,4.248205125E-1,3.343288600E-1
1.025229333E0,-4.428540802E0,-1.227806763E1,-8.756341095E0,1.031468333E0,1.353229642E0,1.341505051E0,2.168160677E-1
1.035211333E0,-3.228636017E0,-1.608270584E1,-1.204036194E1,1.041450333E0,2.896829545E-1,1.820596099E0,8.561084978E-3
1.045193333E0,-1.849404144E0,-2.048969147E1,-1.650078644E1,1.051432333E0,-5.417977571E-1,1.481434584E0,-2.720689774E-1
1.055175333E0,-6.911128235E-1,-2.378718430E1,-1.708532089E1,1.061414333E0,-1.144697785E0,3.535169363E-1,-6.601878405E-1
1.065157333E0,3.487747192E-1,-2.309652054E1,-1.504955429E1,1.071396333E0,-1.608805299E0,-1.118186355E0,-1.122325420E0
1.075139333E0,1.240919495E0,-1.919548279E1,-1.429078217E1,1.081378333E0,-1.633424282E0,-2.113406658E0,-1.392136812E0
1.085121333E0,1.611548767E0,-1.376747040E1,-1.167646866E1,1.091360333E0,-1.201961279E0,-2.008790016E0,-1.366204262E0
1.095103333E0,1.287921753E0,-9.003926239E0,-7.717651062E0,1.101342333E0,-4.906333983E-1,-9.386639595E-1,-1.208038926E0
1.105085333E0,1.652114410E0,-5.596711578E0,-3.988755341E0,1.111324333E0,1.640520245E-1,6.181946993E-1,-8.975124359E-1
1.115067333E0,1.493294678E0,-4.117038574E0,-2.157463531E0,1.121306333E0,4.211645722E-1,1.563596845E0,-2.871109545E-1
1.125049333E0,9.445358276E-2,-6.051465912E0,-3.632645874E0,1.131288333E0,4.403598309E-1,1.573794603E0,2.862106264E-1
1.135032333E0,-5.173242188E-1,-1.044408142E1,-4.922962646E0,1.141271333E0,6.406442523E-1,1.688888669E0,5.329976678E-1
1.145014333E0,2.245330811E-1,-1.467682938E1,-1.884131927E0,1.151253333E0,1.051110387E0,2.251284599E0,3.305481970E-1
1.154996333E0,1.162781982E0,-1.755968445E1,4.568649445E0,1.161235333E0,1.286770225E0,2.119002104E0,-2.169232219E-1
1.164978333E0,1.947749634E0,-1.816996536E1,8.366851044E0,1.171217333E0,1.097479105E0,1.308208823E0,-6.430132985E-1
1.174960333E0,2.395019531E-3,-1.629122223E1,6.506968689E0,1.181199333E0,4.759355485E-1,5.876432657E-1,-7.990803123E-1
1.184942333E0,-2.664608917E0,-1.267234772E1,3.197051697E0,1.191181333E0,-2.514954507E-1,-4.953090847E-1,-8.378897309E-1
1.194924333E0,-4.469256134E0,-9.934091949E0,-1.566492462E0,1.201163333E0,-9.373078346E-1,-2.528536797E0,-8.113088608E-1
1.204906333E0,-5.856720886E0,-8.565487976E0,-9.025780792E0,1.211145333E0,-1.158125758E0,-3.454404593E0,-4.382393956E-1
1.214888333E0,-8.547076263E0,-6.412215729E0,-7.579338684E0,1.221127333E0,-5.383803248E-1,-2.391082287E0,3.886813670E-2
1.224870333E0,-1.008153534E1,-3.305276642E0,-5.656736755E-1,1.231109333E0,6.895803213E-1,-4.687839150E-1,4.538099170E-1
1.234852333E0,-9.121581573E0,-1.002315674E0,3.671265564E0,1.241091333E0,2.009548664E0,1.606062770E0,8.409587741E-1
1.244834333E0,-7.653135223E0,-5.550457764E-1,5.688770142E0,1.251073333E0,2.956942320E0,3.561524630E0,1.230385423E0
1.254816333E0,-6.717431030E0,-1.703906708E0,6.331832886E0,1.261055333E0,3.364627361E0,4.965805531E0,1.587849259E0
1.264798333E0,-5.773044891E0,-3.852987671E0,6.773713989E0,1.271037333E0,3.228566885E0,5.167157173E0,1.897753358E0
1.274780333E0,-4.830455017E0,-6.328539734E0,7.226073303E0,1.281020333E0,2.674369574E0,4.233215809E0,2.083015680E0
1.284763333E0,-3.804189148E0,-8.939260712E0,6.879843292E0,1.291002333E0,1.917719007E0,2.642714977E0,2.020405054E0
1.294745333E0,-2.567311249E0,-1.183453995E1,5.913003845E0,1.300984333E0,1.387321830E0,1.100910187E0,1.834974051E0
1.304727333E0,-1.800904999E0,-1.424587555E1,5.122946777E0,1.310966333E0,1.375626087E0,-1.875889897E-1,1.653826118E0
1.314709333E0,-3.282673645E-1,-1.620051086E1,3.914360046E0,1.320948333E0,1.756402373E0,-9.614438415E-1,1.474365950E0
1.324691333E0,2.632725220E0,-1.829899704E1,1.375489655E0,1.330930333E0,1.912696719E0,-5.924327970E-1,1.155767679E0
1.334673333E0,6.415957947E0,-1.861903152E1,-2.165397034E0,1.340912333E0,1.789890885E0,1.619614065E-1,7.199088335E-1
1.344655333E0,8.978628845E0,-1.719264771E1,-3.668870544E0,1.350894333E0,1.619375825E0,5.211983919E-1,2.228492200E-1
1.354637333E0,9.404942322E0,-1.503817795E1,-2.730771332E0,1.360876333E0,1.558069468E0,3.024379611E-1,-2.376139313E-1
1.364619333E0,8.643176422E0,-1.318488190E1,-1.570833435E0,1.370858333E0,1.535248041E0,1.889811829E-2,-5.513707995E-1
1.374601333E0,5.744604034E0,-1.177167068E1,-7.587721252E-1,1.380840333E0,1.519677401E0,7.230053842E-2,-7.645786405E-1
1.384583333E0,2.216291199E0,-1.056502991E1,-2.308200073E-1,1.390822333E0,1.542665005E0,3.978490829E-1,-8.931352496E-1
1.394565333E0,-3.603007507E-1,-9.052126007E0,2.053729248E-1,1.400804333E0,1.656659007E0,7.421562672E-1,-9.190621376E-1
1.404547333E0,-2.230511627E0,-7.606282654E0,4.002676392E-1,1.410786333E0,1.813721299E0,8.020923138E-1,-8.090272546E-1
1.414529333E0,-3.588038635E0,-6.695277100E0,4.625381470E-1,1.420768333E0,1.916166902E0,6.187946200E-1,-6.079027653E-1
1.424511333E0,-4.343367920E0,-6.245163116E0,3.055146790E-1,1.430751333E0,1.888445258E0,5.000767708E-1,-3.454048634E-1
1.434494333E0,-4.820126495E0,-6.175707550E0,4.355941772E-2,1.440733333E0,1.714205623E0,4.604045451E-1,-6.703639776E-2
1.444476333E0,-5.004542999E0,-6.513854370E0,-3.411405945E-1,1.450715333E0,1.460045815E0,4.897752106E-1,1.460002512E-1
1.454458333E0,-4.493356018E0,-6.965315552E0,-5.436694336E-1,1.460697333E0,1.231171846E0,6.519483328E-1,3.003620207E-1
1.464440333E0,-3.780538330E0,-7.421417084E0,-5.492079163E-1,1.470679333E0,1.067371488E0,9.648183584E-1,3.855410814E-1
1.474422333E0,-2.918480988E0,-7.880662079E0,-4.472698975E-1,1.480661333E0,9.732520580E-1,1.304187775E0,3.985075653E-1
1.484404333E0,-1.821112976E0,-8.268505554E0,-2.064207458E-1,1.490643333E0,9.073089957E-1,1.483343363E0,4.393290281E-1
1.494386333E0,-1.264121246E0,-8.508606262E0,1.574725342E-1,1.500625333E0,8.095400929E-1,1.453867078E0,4.738632739E-1
1.504368333E0,-7.327262878E-1,-8.685538330E0,5.593867493E-1,1.510607333E0,6.795421243E-1,1.302954435E0,4.754073918E-1
1.514350333E0,-1.600172424E-1,-8.508456573E0,9.828561401E-1,1.520589333E0,6.025486588E-1,1.066794515E0,4.702012539E-1
1.524332333E0,4.757107544E-1,-8.170160065E0,1.541045380E0,1.530571333E0,6.278553009E-1,8.193938732E-1,4.232377410E-1
1.534314333E0,9.138496399E-1,-7.970924377E0,2.064806213E0,1.540553333E0,7.843540907E-1,7.176395059E-1,3.542911410E-1
1.544296333E0,1.160985718E0,-7.649542694E0,2.562072144E0,1.550535333E0,1.023929358E0,6.243827939E-1,3.127000332E-1
1.554278333E0,1.005758514E0,-7.150330811E0,2.689157867E0,1.560517333E0,1.315165162E0,4.584350586E-1,3.015974760E-1
1.564260333E0,4.586462402E-1,-6.705306244E0,2.393223267E0,1.570499333E0,1.588474393E0,2.800408304E-1,2.886784673E-1
1.574242333E0,-1.848655701E-1,-6.872658234E0,1.901795197E0,1.580482333E0,1.764601588E0,1.767160743E-1,2.865766883E-1
1.584225333E0,-7.969427490E-1,-7.779921570E0,1.214723969E0,1.590464333E0,1.795256734E0,1.974471807E-1,3.435765803E-1
1.594207333E0,-1.549427948E0,-9.357640686E0,4.691244507E-1,1.600446333E0,1.688827276E0,2.987296283E-1,4.417823553E-1
1.604189333E0,-1.909279633E0,-1.069151688E1,-3.844006348E-1,1.610428333E0,1.493761420E0,4.488006234E-1,5.708897710E-1
1.614171333E0,-1.631457367E0,-1.141421402E1,-1.040486298E0,1.620410333E0,1.244206548E0,6.333681941E-1,6.888951659E-1
1.624153333E0,-7.170089722E-1,-1.150567383E1,-1.226848755E0,1.630392333E0,9.924600124E-1,7.358298898E-1,7.593650818E-1
1.634135333E0,3.710783386E-1,-1.125719055E1,-1.145567780E0,1.640374333E0,7.955501676E-1,6.164902449E-1,7.265471816E-1
1.644117333E0,1.164278870E0,-1.129625931E1,-1.081650696E0,1.650356333E0,7.048671246E-1,3.166313171E-1,6.000928283E-1
1.654099333E0,1.556313629E0,-1.172975784E1,-9.750723267E-1,1.660338333E0,6.612572670E-1,7.634410262E-2,4.118189514E-1
1.664081333E0,1.785786438E0,-1.213331863E1,-7.364685059E-1,1.670320333E0,5.505027771E-1,4.903364927E-2,1.978696287E-1
1.674063333E0,1.714384918E0,-1.234602631E1,-6.451583862E-1,1.680302333E0,3.719814420E-1,2.489835769E-1,4.583187029E-2
1.684045333E0,1.082848206E0,-1.199725159E1,-5.466632080E-1,1.690284333E0,1.891706288E-1,5.513508916E-1,1.384863444E-2
1.694027333E0,-8.831634521E-3,-1.161389877E1,-2.811154175E-1,1.700266333E0,8.144150674E-2,7.516152263E-1,2.428466827E-2
1.704009333E0,-9.207353210E-1,-1.140523270E1,8.038284302E-2,1.710248333E0,1.081325039E-1,7.865103483E-1,1.505814772E-2
1.713991333E0,-1.231339417E0,-1.110750183E1,3.647914124E-1,1.720230333E0,1.689304411E-1,6.510171890E-1,-1.993669756E-2
1.723973333E0,-1.287921753E0,-1.102996307E1,2.498304749E-1,1.730213333E0,1.421683431E-1,4.682305753E-1,-3.294570744E-2
1.733956333E0,-1.222807159E0,-1.107172623E1,-1.749861145E-1,1.740195333E0,-3.516446799E-2,3.159851134E-1,3.510852344E-3
1.743938333E0,-1.084045715E0,-1.132140701E1,-5.831872559E-1,1.750177333E0,-3.452879786E-1,1.498581767E-1,6.125810556E-3
1.753920333E0,-7.857160950E-1,-1.213092361E1,-8.039781189E-1,1.760159333E0,-6.793670654E-1,2.339324914E-3,-6.753671169E-2
1.763902208E0,-5.987548828E-1,-1.353186035E1,-6.634204102E-1,1.770141208E0,-9.538356662E-1,-6.995697320E-2,-1.928906441E-1
1.773884208E0,-6.255491638E-1,-1.508278519E1,-3.186872864E-1,1.780123208E0,-1.141043901E0,2.768786624E-2,-3.543132246E-1
1.783866208E0,-5.189707947E-1,-1.578647186E1,1.407073975E-2,1.790105208E0,-1.298369646E0,1.307801604E-1,-5.482947230E-1
1.793848208E0,1.035845947E-1,-1.535521866E1,-1.678010559E-1,1.800087208E0,-1.568438172E0,5.674089491E-2,-6.924685240E-1
1.803830208E0,7.827223206E-1,-1.450423828E1,-1.124761047E0,1.810069208E0,-2.003363132E0,-1.358237714E-1,-7.088890672E-1
1.813812208E0,1.020877075E0,-1.352422623E1,-1.780247955E0,1.820051208E0,-2.644565105E0,-3.417959511E-1,-6.195393801E-1
1.823794208E0,9.767189026E-1,-1.278850616E1,-2.196981354E0,1.830033208E0,-3.322103739E0,-5.131821036E-1,-5.262233019E-1
1.833776208E0,1.044827271E0,-1.216535202E1,-1.920206909E0,1.840015208E0,-3.820295572E0,-7.559837699E-1,-4.987408519E-1
1.843758208E0,7.529342651E-1,-1.152887558E1,-5.959107971E-1,1.849997208E0,-4.005672932E0,-1.061094880E0,-4.832734764E-1
1.853740208E0,-1.694476318E-1,-1.115270782E1,1.138532410E0,1.859979208E0,-3.881137133E0,-1.344462633E0,-4.997873902E-1
1.863722208E0,-1.481020203E0,-1.140987305E1,2.630180511E0,1.869961208E0,-3.639294147E0,-1.308626056E0,-5.227265358E-1
1.873704208E0,-3.053799591E0,-1.271979904E1,3.147654419E0,1.879943208E0,-3.485875130E0,-8.246659040E-1,-5.038274527E-1
1.883687208E0,-5.202281799E0,-1.464704132E1,2.154020691E0,1.889926208E0,-3.345787048E0,-2.689137757E-1,-4.597798586E-1
1.893669208E0,-6.908284149E0,-1.648806290E1,1.312470703E0,1.899908208E0,-3.063610792E0,8.847756684E-2,-3.642391860E-1
1.903651208E0,-7.589218140E0,-1.753274048E1,2.050286407E0,1.909890208E0,-2.757241249E0,3.580648303E-1,-2.789453268E-1
1.913633208E0,-7.498207397E0,-1.675720322E1,2.787054291E0,1.919872208E0,-2.506251812E0,5.716570020E-1,-3.134144545E-1
1.923615208E0,-6.043532410E0,-1.420995026E1,2.988086243E0,1.929854208E0,-2.332799911E0,6.465922594E-1,-4.092954695E-1
1.933597208E0,-3.529510345E0,-1.118713623E1,2.742447052E0,1.939836208E0,-2.185753107E0,6.876915693E-1,-4.366450906E-1
1.943579208E0,-2.086960144E0,-9.342222748E0,2.320624237E0,1.949818208E0,-2.071129799E0,8.011680841E-1,-4.206839800E-1
1.953561208E0,-1.022224274E0,-8.243208160E0,1.657652893E0,1.959800208E0,-2.059180975E0,7.782222629E-1,-4.119570553E-1
1.963543208E0,7.439529419E-2,-7.963290253E0,4.968168640E-1,1.969782208E0,-2.153944254E0,4.312512577E-1,-2.840648890E-1
1.973525208E0,1.248403931E-1,-8.438701630E0,-9.804611206E-1,1.979764208E0,-2.278226614E0,-6.992984563E-2,-1.744080186E-1
1.983507208E0,-4.074526978E-1,-9.157357178E0,-1.680555267E0,1.989746208E0,-2.276601315E0,-5.248907208E-1,-2.219345272E-1
1.993489208E0,-3.270698547E-1,-9.979896698E0,-1.002165985E0,1.999728208E0,-2.157557964E0,-8.120931387E-1,-3.342849314E-1
2.003471208E0,-2.031275940E-1,-1.064601151E1,-1.968406677E-1,2.009710208E0,-2.027181149E0,-9.106591344E-1,-4.689143896E-1
2.013453208E0,-3.472778320E-2,-1.086530548E1,-1.034349060E-1,2.019692208E0,-1.901611209E0,-6.815692186E-1,-6.389199495E-1
2.023435208E0,5.866300964E-1,-1.071217392E1,-2.650987244E-1,2.029674208E0,-1.717434406E0,-3.686935902E-1,-7.796989083E-1
2.033417208E0,8.840615845E-1,-1.040441391E1,9.340576172E-2,2.039657208E0,-1.561338067E0,-1.481852829E-1,-8.578646183E-1
2.043400208E0,7.711962891E-1,-9.792785797E0,6.735992432E-2,2.049639208E0,-1.475654840E0,-8.625560254E-2,-8.972525001E-1
2.053382208E0,4.813989258E-1,-9.179810486E0,2.290237427E-2,2.059621208E0,-1.460901737E0,-1.791839302E-1,-8.703981042E-1
2.063364208E0,1.130149841E-1,-8.472381592E0,-4.535568237E-2,2.069603208E0,-1.490792036E0,-4.371451735E-1,-7.887045741E-1
2.073346208E0,-5.351371765E-1,-7.778125305E0,8.397537231E-2,2.079585208E0,-1.532159090E0,-8.164302111E-1,-7.098879218E-1
2.083328208E0,-7.641609192E-1,-6.797664185E0,2.401007080E-1,2.089567208E0,-1.525150418E0,-1.171186924E0,-6.396843195E-1
2.093310208E0,-1.007255402E0,-5.469476166E0,6.462062073E-1,2.099549208E0,-1.445137978E0,-1.530481577E0,-6.233716011E-1
2.103292208E0,-9.214837646E-1,-4.485871582E0,1.019679565E0,2.109531208E0,-1.273037553E0,-1.805732369E0,-5.917630792E-1
2.113274208E0,-9.729766846E-1,-3.544628906E0,1.257984009E0,2.119513208E0,-1.017761707E0,-1.915039062E0,-5.473449230E-1
2.123256208E0,-1.118324432E0,-3.007545776E0,1.378483429E0,2.129495208E0,-7.418422699E-1,-1.851065040E0,-4.956867695E-1
2.133238208E0,-1.230441284E0,-2.555336151E0,1.221759338E0,2.139477208E0,-4.419860840E-1,-1.654248834E0,-4.201269746E-1
2.143220208E0,-1.464704132E0,-2.369273071E0,9.657916260E-1,2.149459208E0,-1.809219867E-1,-1.459360003E0,-3.223724663E-1
2.153202208E0,-1.715582428E0,-2.276765442E0,5.563929749E-1,2.159441208E0,5.298840255E-2,-1.353123188E0,-2.181638628E-1
2.163184208E0,-1.976789246E0,-2.373614044E0,1.326242065E-1,2.169423208E0,3.139811158E-1,-1.189752102E0,-1.483253986E-1
2.173166208E0,-2.152823181E0,-2.449356537E0,2.667453003E-1,2.179405208E0,6.051269770E-1,-1.105656147E0,-9.993948787E-2
2.183148208E0,-2.186652832E0,-2.597847748E0,5.131329346E-1,2.189387208E0,8.879248500E-1,-1.099001408E0,-8.472964168E-2
2.193130208E0,-2.062261505E0,-2.684816895E0,4.197271729E-1,2.199369208E0,1.173289299E0,-1.128149748E0,-5.076057464E-2
2.203113208E0,-1.980381775E0,-2.856659546E0,5.243595886E-1,2.209352208E0,1.445978045E0,-1.134759188E0,-1.193727739E-2
2.213095208E0,-1.991907806E0,-3.089126129E0,9.879455566E-2,2.219334208E0,1.694620371E0,-1.120531082E0,4.943463579E-2
2.223077208E0,-2.178569641E0,-3.591631165E0,-8.954379272E-1,2.229316208E0,1.905548811E0,-1.060838699E0,1.375794113E-1
2.233059208E0,-2.459984436E0,-4.497996368E0,-2.124831390E0,2.239298208E0,2.063662052E0,-9.735938311E-1,2.357590795E-1
2.243041208E0,-2.716700592E0,-5.691314850E0,-3.606450348E0,2.249280208E0,2.111775875E0,-8.272858858E-1,3.336558044E-1
2.253023208E0,-2.989732819E0,-7.104675751E0,-5.614225159E0,2.259262208E0,2.016638756E0,-5.104793310E-1,4.170035124E-1
2.263005208E0,-3.249742126E0,-9.132957916E0,-7.827223206E0,2.269244208E0,1.770889163E0,8.000528067E-2,4.360379279E-1
2.272987208E0,-3.155438232E0,-1.198183365E1,-9.410331116E0,2.279226208E0,1.192337632E0,8.595203161E-1,3.623998761E-1
2.282969208E0,-2.723586273E0,-1.595921265E1,-1.246068787E1,2.289208208E0,2.525238395E-1,1.488175988E0,1.350253075E-1
2.292951208E0,-1.981728973E0,-2.115595596E1,-1.645737671E1,2.299190208E0,-7.488951683E-1,1.017533779E0,-2.694760859E-1
2.302933208E0,-1.134939880E0,-2.598551285E1,-1.767045410E1,2.309172208E0,-1.602363467E0,-2.673001289E-1,-7.715392113E-1
2.312915208E0,6.227050781E-2,-2.618235352E1,-1.589784027E1,2.319154208E0,-2.062449932E0,-1.493637085E0,-1.268818855E0
2.322897208E0,1.079405365E0,-2.182716019E1,-1.285257294E1,2.329136208E0,-1.934868455E0,-2.074048519E0,-1.601366758E0
2.332879208E0,1.523831177E0,-1.529938477E1,-8.775800629E0,2.339118208E0,-1.441792488E0,-1.975491405E0,-1.656925797E0
2.342861208E0,7.821235657E-1,-9.552685089E0,-5.747148743E0,2.349100208E0,-7.198654413E-1,-1.344398379E0,-1.491011620E0
2.352843208E0,1.061293030E-1,-5.455405426E0,-3.748055878E0,2.359083208E0,5.603969097E-2,-3.598273993E-1,-1.132079124E0
2.362826208E0,-4.035607910E-1,-3.317102051E0,-2.403701477E0,2.369065208E0,6.217992306E-1,6.754884720E-1,-5.015779138E-1
2.372808208E0,-1.835183716E0,-3.846850433E0,-2.176024933E0,2.379047208E0,6.781735420E-1,1.176960826E0,2.391474843E-1
2.382790208E0,-3.280727692E0,-6.562952271E0,-4.062701569E0,2.389029208E0,4.485774040E-1,1.330480933E0,7.153702378E-1
2.392772208E0,-3.248694305E0,-1.060873901E1,-5.683680725E0,2.399011208E0,2.548276782E-1,1.397982001E0,8.366912603E-1
2.402754208E0,-1.653611298E0,-1.420321426E1,-4.122427368E0,2.408993208E0,3.339568377E-1,1.521558762E0,5.801947713E-1
2.412736208E0,1.941462708E-1,-1.635663620E1,1.613494720E0,2.418975208E0,5.010878444E-1,1.130756021E0,1.753215864E-2
2.422718208E0,1.343605957E0,-1.685375244E1,6.605014801E0,2.428957208E0,5.150787234E-1,5.261941552E-1,-4.689030051E-1
2.432700208E0,3.297642517E-1,-1.491917542E1,5.788462830E0,2.438939208E0,3.264347613E-1,1.854186952E-1,-6.609005928E-1
2.442682208E0,-1.496737518E0,-1.132499954E1,3.542383575E0,2.448921208E0,2.812486291E-1,-4.469733834E-1,-6.184809804E-1
2.452664208E0,-3.594175873E0,-7.932753754E0,1.804198151E0,2.458903208E0,1.665180475E-1,-1.537564158E0,-3.468992710E-1
2.462646208E0,-6.828350372E0,-6.249055023E0,-3.376977539E0,2.468885208E0,-1.283252705E-2,-2.026445866E0,2.039766461E-1
2.472628208E0,-1.033870056E1,-5.286706238E0,-6.784790955E0,2.478867208E0,1.910139173E-1,-9.145795107E-1,7.256154418E-1
2.482610208E0,-1.102951401E1,-3.315605164E0,-4.018992462E0,2.488849208E0,8.970940709E-1,8.510275483E-1,1.025783062E0
2.492592208E0,-8.739276581E0,-1.711989899E0,1.184037781E-1,2.498831208E0,1.829273224E0,2.473102570E0,1.198061824E0
2.502574208E0,-6.254443817E0,-1.303938446E0,2.936443634E0,2.508813208E0,2.733729839E0,3.798674583E0,1.318277240E0
2.512556208E0,-4.436174927E0,-2.164199524E0,5.585634613E0,2.518795208E0,3.296207428E0,4.504764080E0,1.520297766E0
2.522538208E0,-3.390449524E0,-4.522395630E0,7.898475037E0,2.528777208E0,3.322286606E0,4.270076275E0,1.785280108E0
2.532521208E0,-2.726430359E0,-7.856412506E0,8.402177582E0,2.538760208E0,2.820149183E0,3.038695574E0,1.827501893E0
2.542503208E0,-1.219663696E0,-1.120554794E1,6.888824615E0,2.548742208E0,2.080522776E0,1.581651211E0,1.615013361E0
2.552485208E0,1.158890076E0,-1.373962830E1,3.985312500E0,2.558724208E0,1.314682007E0,5.917625427E-1,1.312613130E0
2.562467208E0,3.797902222E0,-1.568992264E1,-6.758445740E-1,2.568706208E0,8.838496804E-1,6.098339334E-2,1.036822796E0
2.572449208E0,6.332132263E0,-1.732078125E1,-4.430187378E0,2.578688208E0,8.781558275E-1,-4.935997128E-1,8.871697187E-1
2.582431208E0,7.715256042E0,-1.763108597E1,-4.537065125E0,2.588670208E0,9.498353601E-1,-1.145804048E0,7.254498005E-1
2.592413208E0,8.472082214E0,-1.620140900E1,-3.215613098E0,2.598652208E0,9.184949994E-1,-1.765621901E0,3.778450191E-1
2.602395208E0,9.301657104E0,-1.425560532E1,-2.009271698E0,2.608634208E0,8.664475083E-1,-2.061213255E0,-1.983418688E-2
2.612377208E0,8.948242035E0,-1.266621048E1,-9.616003418E-1,2.618616208E0,8.752478361E-1,-1.953153014E0,-2.628158927E-1
2.622359208E0,5.968238983E0,-1.197315170E1,3.143463135E-3,2.628598208E0,9.715139270E-1,-1.710739613E0,-5.061358809E-1
2.632341208E0,2.605332184E0,-1.126108246E1,7.598199463E-1,2.638580208E0,1.127252698E0,-1.451729178E0,-8.241422176E-1
2.642323208E0,2.195933533E-1,-9.914782104E0,1.108145599E0,2.648562208E0,1.363129139E0,-1.097638726E0,-1.064140201E0
2.652305208E0,-1.963466949E0,-8.425828400E0,1.418150940E0,2.658544208E0,1.679090500E0,-7.676693797E-1,-1.098731756E0
2.662287208E0,-3.743864594E0,-7.044351196E0,1.422042847E0,2.668526208E0,1.956377745E0,-3.521006703E-1,-9.860193133E-1
2.672269208E0,-5.287155304E0,-6.101911011E0,1.080453186E0,2.678508208E0,2.116038561E0,-2.962220833E-2,-7.660574317E-1
2.682251208E0,-6.615343323E0,-5.799539795E0,3.911366272E-1,2.688490208E0,2.107833624E0,1.396521460E-2,-4.593645930E-1
2.692234208E0,-7.395970001E0,-5.964796143E0,-2.740800476E-1,2.698473208E0,1.910575390E0,-9.684813023E-2,-1.453090608E-1
2.702216208E0,-7.246430969E0,-6.241271210E0,-9.500743103E-1,2.708455208E0,1.651829243E0,-3.245374858E-1,1.369370222E-1
2.712198208E0,-5.979315948E0,-6.915169830E0,-9.313632202E-1,2.718437208E0,1.445265651E0,-6.627279520E-1,3.680883050E-1
2.722180208E0,-4.864434357E0,-7.517517242E0,-4.962181091E-1,2.728419208E0,1.336870790E0,-7.442795038E-1,4.954065681E-1
2.732162208E0,-3.915707245E0,-7.936196594E0,-1.658551025E-1,2.738401208E0,1.334876418E0,-4.458244145E-1,5.378287435E-1
2.742144208E0,-2.956052856E0,-8.192164307E0,5.688171387E-3,2.748383208E0,1.366597772E0,4.192205518E-2,5.571188331E-1
2.752126208E0,-2.232607269E0,-8.247698822E0,-2.718347168E-1,2.758365208E0,1.380709648E0,5.252866149E-1,5.311556458E-1
2.762108208E0,-1.385518799E0,-8.234825592E0,-6.602769470E-1,2.768346708E0,1.396169305E0,8.531297445E-1,4.532313347E-1
2.772089708E0,-4.662803650E-1,-8.139922943E0,-3.906875610E-1,2.778328708E0,1.393650293E0,1.012328982E0,3.530806005E-1
2.782071708E0,3.839515686E-1,-7.921527100E0,3.475772095E-1,2.788310708E0,1.384992599E0,1.173089862E0,2.951152921E-1
2.792053708E0,7.981402588E-1,-7.764653320E0,1.289867706E0,2.798292708E0,1.368816733E0,1.278969407E0,2.434312254E-1
2.802035708E0,1.051712952E0,-7.816445618E0,2.325863342E0,2.808274708E0,1.380069375E0,1.234218240E0,2.395525873E-1
2.812017708E0,1.101409607E0,-7.371720428E0,3.074756012E0,2.818256708E0,1.448777199E0,1.038452744E0,2.922528982E-1
2.821999708E0,4.352947998E-1,-6.782246246E0,3.554059296E0,2.828238708E0,1.646360636E0,7.811990976E-1,3.371258378E-1
2.831981708E0,-4.481680298E-1,-6.663393402E0,4.174818420E0,2.838220708E0,1.878816009E0,3.709233105E-1,3.905764818E-1
2.841963708E0,-1.472188568E0,-7.420069885E0,3.968846741E0,2.848202708E0,1.995807648E0,-1.578907371E-1,4.840326607E-1
2.851945708E0,-2.483635254E0,-9.289083252E0,2.500699768E0,2.858184708E0,1.969846249E0,-5.712882280E-1,6.197177768E-1
2.861928708E0,-3.017874298E0,-1.108684479E1,7.524851990E-1,2.868167708E0,1.800121665E0,-7.917788029E-1,7.666161656E-1
2.871910708E0,-2.955154724E0,-1.208871140E1,-1.234482880E0,2.878149708E0,1.480879664E0,-7.473510504E-1,8.565029502E-1
2.881892708E0,-1.823058929E0,-1.291035278E1,-3.751199341E0,2.888131708E0,1.045282125E0,-3.202804625E-1,8.346069455E-1
2.891874708E0,2.878514099E-1,-1.362302078E1,-5.746849365E0,2.898113708E0,6.301288605E-1,3.879376352E-1,6.879757047E-1
2.901856708E0,2.293081512E0,-1.404184982E1,-5.732329559E0,2.908095708E0,3.429876268E-1,1.024483204E0,4.945884049E-1
2.911838708E0,3.622766418E0,-1.395682663E1,-3.978277130E0,2.918077708E0,1.171379834E-1,1.346976757E0,2.599024475E-1
2.921820708E0,4.310735779E0,-1.328966400E1,-1.915267181E0,2.928059708E0,-1.049667150E-1,1.369791746E0,3.327626735E-3
2.931802708E0,4.532424774E0,-1.240694962E1,-7.694000244E-2,2.938041708E0,-2.756493986E-1,1.137910247E0,-1.756915897E-1
2.941784708E0,3.899989929E0,-1.177601166E1,1.536704407E0,2.948023708E0,-3.216174245E-1,7.226560712E-1,-2.028113604E-1
2.951766708E0,2.505190430E0,-1.143292511E1,2.698288879E0,2.958005708E0,-2.246232927E-1,2.112466544E-1,-1.637774408E-1
2.961748708E0,9.330097961E-1,-1.152049301E1,2.918331299E0,2.967987708E0,-9.316379577E-2,-2.294622958E-1,-5.011559278E-2
2.971730708E0,-6.420149231E-1,-1.167437302E1,2.256258087E0,2.977969708E0,-1.884248704E-1,-6.219803095E-1,3.959765658E-2
2.981712708E0,-1.488354950E0,-1.212538513E1,1.914518738E-1,2.987951708E0,-5.481311083E-1,-8.643530011E-1,8.819767833E-2
2.991694708E0,-1.622625732E0,-1.319086945E1,-1.856140137E0,2.997933708E0,-9.781364202E-1,-9.150965214E-1,4.615125060E-2
3.001676708E0,-9.924362183E-1,-1.452609283E1,-2.314936066E0,3.007915708E0,-1.349129081E0,-7.604376674E-1,-1.432354599E-1
3.011658708E0,-2.267784119E-1,-1.516810776E1,-1.443298645E0,3.017897708E0,-1.589875340E0,-4.142704606E-1,-4.138720036E-1
3.021640708E0,7.394622803E-2,-1.522454041E1,-3.625460815E-1,3.027880708E0,-1.708691001E0,4.697497003E-3,-6.528946757E-1
3.031623708E0,-3.113525391E-2,-1.467952377E1,4.885839844E-1,3.037862708E0,-1.884529591E0,2.598563433E-1,-7.538461089E-1
3.041605708E0,-4.556524658E-1,-1.393317581E1,3.370989990E-1,3.047844708E0,-2.218520880E0,2.064788640E-1,-6.945145726E-1
3.051587708E0,-6.270460510E-1,-1.320029984E1,-3.520678711E-1,3.057826708E0,-2.701698303E0,-9.835643321E-2,-5.039854646E-1
3.061569708E0,-9.403445435E-1,-1.329909439E1,-4.894821167E-1,3.067808708E0,-3.232219696E0,-5.343849063E-1,-3.557691574E-1
3.071551708E0,-8.457412720E-1,-1.325598404E1,-1.354682922E-1,3.077790708E0,-3.705262899E0,-8.759417534E-1,-3.456761241E-1
3.081533708E0,-6.896159363E-1,-1.283745438E1,3.475772095E-1,3.087772708E0,-3.983271122E0,-1.064392567E0,-4.359538257E-1
3.091515708E0,-1.125359802E0,-1.220756424E1,1.106499023E0,3.097754708E0,-3.975434303E0,-1.237988591E0,-4.787690639E-1
3.101497708E0,-2.514620819E0,-1.205967178E1,2.052831116E0,3.107736708E0,-3.765818119E0,-1.484648466E0,-4.564126432E-1
3.111479708E0,-4.392465820E0,-1.262729141E1,2.334694977E0,3.117718708E0,-3.565710068E0,-1.451850176E0,-3.943138719E-1
3.121461708E0,-6.396348724E0,-1.396625702E1,1.816772003E0,3.127700708E0,-3.389283657E0,-1.064725637E0,-3.227725923E-1
3.131443708E0,-8.085885315E0,-1.507574982E1,1.414708099E0,3.137682708E0,-3.152822495E0,-3.794394135E-1,-2.339914888E-1
3.141425708E0,-9.052275696E0,-1.519400391E1,1.840871887E0,3.147664708E0,-2.852690697E0,2.526224554E-1,-6.203916296E-2
3.151407708E0,-8.589887238E0,-1.409798309E1,2.304457855E0,3.157646708E0,-2.560409307E0,6.565469503E-1,-1.254716367E-1
3.161389708E0,-5.262905731E0,-1.209499832E1,2.528392181E0,3.167628708E0,-2.351938963E0,1.039454699E0,-1.707661450E-1
3.171371708E0,-1.838177490E0,-1.077564194E1,2.532284088E0,3.177610708E0,-2.272132635E0,9.793056846E-1,-9.670169652E-2
3.181353708E0,-6.193969574E0,-9.933642883E0,1.110839996E0,3.187592708E0,-2.243841887E0,5.606487393E-1,-1.394877732E-1
3.191335708E0,-2.543361053E0,-8.629105682E0,2.604583740E-1,3.197575708E0,-2.191359758E0,2.229178548E-1,-1.345117688E-1
3.201318708E0,-7.878117371E-1,-7.929909668E0,-3.236270142E-1,3.207557708E0,-2.114355803E0,-3.700799495E-2,-2.193250693E-2
3.211300708E0,-1.531465302E0,-7.669900360E0,-1.114282837E0,3.217539708E0,-2.009433270E0,-1.210368574E-1,-7.916023023E-3
3.221282708E0,3.026705933E-1,-7.222780151E0,-1.494492188E0,3.227521708E0,-1.894411802E0,-3.198207915E-2,-4.381143674E-2
3.231264708E0,1.331331482E0,-7.254514160E0,-1.464554443E0,3.237503708E0,-1.821133137E0,1.371959597E-1,-1.661329269E-1
3.241246708E0,1.838177490E0,-8.074209595E0,-1.332828369E0,3.247485708E0,-1.767011285E0,3.845722079E-1,-4.538283646E-1
3.251228708E0,2.368225250E0,-9.224717102E0,-7.967930603E-1,3.257467708E0,-1.644676685E0,5.357540250E-1,-7.710645199E-1
3.261210708E0,2.580034790E0,-1.028945297E1,2.918930054E-2,3.267449708E0,-1.508080006E0,5.059835911E-1,-1.037578940E0
3.271192708E0,2.395767975E0,-1.082429077E1,2.906954956E-1,3.277431708E0,-1.345043778E0,3.950195611E-1,-1.276468515E0
3.281174708E0,2.225122833E0,-1.048015640E1,4.242178345E-1,3.287413708E0,-1.208667994E0,1.712083220E-1,-1.401648879E0
3.291156708E0,1.442250824E0,-9.870474243E0,4.721182251E-1,3.297395708E0,-1.200022459E0,-3.393780589E-1,-1.418165684E0
3.301138708E0,7.611671448E-1,-9.126221924E0,-2.851570129E-1,3.307377708E0,-1.236484766E0,-8.471848369E-1,-1.316432953E0
3.311120708E0,-9.011260986E-2,-8.175548859E0,-3.550616455E-1,3.317359708E0,-1.254362941E0,-1.243839979E0,-1.181382298E0
3.321102708E0,-5.316943359E-1,-6.785988464E0,-7.903564453E-2,3.327341708E0,-1.242725730E0,-1.541136026E0,-1.079002976E0
3.331084708E0,-1.033899994E0,-5.583838348E0,8.322692871E-2,3.337323708E0,-1.171540022E0,-1.787437677E0,-1.014524460E0
3.341066708E0,-1.441951447E0,-4.626129913E0,1.854643250E-1,3.347305708E0,-1.031740069E0,-2.065442801E0,-9.839338064E-1
3.351048708E0,-1.932930450E0,-4.116888885E0,1.564247131E-1,3.357287708E0,-8.408728838E-1,-2.208179235E0,-9.630705118E-1
3.361030708E0,-2.255060577E0,-3.687431946E0,-1.070274353E-1,3.367269708E0,-5.685204268E-1,-2.125703812E0,-9.357704520E-1
3.371012708E0,-2.700085144E0,-3.598067780E0,4.610412598E-2,3.377252708E0,-2.791955173E-1,-1.858808279E0,-9.147469997E-1
3.380995708E0,-2.614014130E0,-3.502716064E0,-2.170486450E-2,3.387234708E0,8.418432437E-3,-1.490222454E0,-8.716807365E-1
3.390977708E0,-2.630479889E0,-3.353626099E0,4.475692749E-2,3.397216708E0,2.535616755E-1,-1.148262382E0,-8.285536766E-1
3.400959708E0,-2.524799652E0,-3.396437073E0,-7.694000244E-2,3.407198708E0,4.941210151E-1,-7.161870599E-1,-7.435333133E-1
3.410941708E0,-2.725083160E0,-3.387755127E0,4.131408691E-2,3.417180708E0,7.071339488E-1,-3.613053560E-1,-6.473898292E-1
3.420923708E0,-2.750979309E0,-3.470383301E0,-2.050735474E-2,3.427162708E0,8.963576555E-1,-1.800029427E-1,-5.520169735E-1
3.430905708E0,-2.730771332E0,-3.542982330E0,-2.817141724E-1,3.437144708E0,1.079167366E0,-1.495731771E-1,-4.467445016E-1
3.440887708E0,-2.689157867E0,-3.832480316E0,-5.661227417E-1,3.447126708E0,1.252740502E0,-2.463841438E-1,-3.376670182E-1
3.450869708E0,-2.505639496E0,-4.191882935E0,-1.026265869E0,3.457108708E0,1.419298053E0,-4.117216170E-1,-2.104712874E-1
3.460851708E0,-2.311642914E0,-4.514162750E0,-1.498833160E0,3.467090708E0,1.585770607E0,-5.849573016E-1,-8.606171608E-2
3.470833708E0,-2.100731506E0,-4.817881165E0,-2.247725830E0,3.477072708E0,1.746144295E0,-7.156780362E-1,2.907393128E-2
3.480815708E0,-1.945803680E0,-5.294190674E0,-3.133583679E0,3.487054708E0,1.892188907E0,-7.881152630E-1,1.345915645E-1
3.490797708E0,-1.993853760E0,-6.067033539E0,-4.113895111E0,3.497036708E0,1.977154613E0,-7.151964903E-1,1.858063489E-1
3.500779708E0,-2.014510803E0,-7.079977112E0,-5.285658417E0,3.507018708E0,1.912908316E0,-3.471459746E-1,1.830909997E-1
3.510761708E0,-2.071542206E0,-8.521629181E0,-6.806944885E0,3.517000708E0,1.650208950E0,1.509246826E-1,1.050859913E-1
3.520743708E0,-1.821412354E0,-1.037282959E1,-8.659342804E0,3.526982708E0,1.130579352E0,6.192953587E-1,-1.983410679E-2
3.530725708E0,-1.742077332E0,-1.272818161E1,-1.136466705E1,3.536964708E0,4.821236134E-1,6.916236281E-1,-1.319611669E-1
3.540707708E0,-2.102677460E0,-1.566821777E1,-1.398347122E1,3.546947708E0,-2.155654579E-1,5.216042399E-1,-2.348209769E-1
3.550690708E0,-2.474354553E0,-1.883158951E1,-1.542287796E1,3.556929708E0,-8.171470165E-1,1.288196631E-2,-2.854369283E-1
3.560672708E0,-2.461331635E0,-2.155742111E1,-1.561118637E1,3.566911708E0,-1.205895543E0,-6.497087479E-1,-3.828518987E-1
3.570654708E0,-1.249002686E0,-2.175141769E1,-1.405457336E1,3.576893708E0,-1.338047028E0,-1.164288044E0,-6.641559005E-1
3.580636708E0,1.533710632E0,-1.833926331E1,-1.126572281E1,3.586875708E0,-1.226530313E0,-1.283854127E0,-9.441604018E-1
3.590618708E0,3.025059357E0,-1.369771545E1,-8.014483795E0,3.596857708E0,-9.779941440E-1,-1.228513360E0,-9.966993332E-1
3.600600708E0,2.555186462E0,-9.645192719E0,-5.598657532E0,3.606839708E0,-7.149553299E-1,-1.041455626E0,-8.712543249E-1
3.610582708E0,1.880539398E0,-6.803651733E0,-4.973108368E0,3.616821708E0,-4.062016606E-1,-5.753880143E-1,-6.369994283E-1
3.620564708E0,1.315464478E0,-6.067482605E0,-5.171146545E0,3.626803708E0,-7.545915991E-2,9.883218445E-3,-3.264834285E-1
3.630546708E0,9.389973450E-1,-7.242089996E0,-5.079986115E0,3.636785708E0,4.520953000E-1,1.048499465E0,-7.612423599E-2
3.640528708E0,6.376739502E-1,-9.550888824E0,-2.441423035E0,3.646767708E0,1.320765495E0,2.197377205E0,7.755453885E-2
3.650510708E0,7.062313843E-1,-1.162722107E1,4.477938080E0,3.656749708E0,2.107571125E0,2.824493170E0,4.270096123E-2
3.660492708E0,3.743714905E-1,-1.302740936E1,1.082563797E1,3.666731708E0,2.279305458E0,2.620019197E0,-7.980311662E-2
3.670474708E0,-1.525477753E0,-1.483011063E1,1.073387878E1,3.676713708E0,1.564580441E0,2.127536535E0,-3.062523603E-1
3.680456708E0,-4.533622284E0,-1.748289413E1,4.558620300E0,3.686695708E0,-6.690071523E-2,1.017922640E0,-6.123553514E-1
3.690438708E0,-5.636229401E0,-1.858490250E1,-4.784350891E0,3.696677708E0,-1.525557041E0,-7.995406389E-1,-9.363289475E-1
3.700420708E0,-4.693789215E0,-1.615560425E1,-1.072983719E1,3.706659708E0,-1.837782621E0,-2.242857695E0,-8.781750798E-1
3.710402708E0,-5.314398651E0,-1.250110382E1,-7.500901794E0,3.716642708E0,-1.101327777E0,-2.337972164E0,-4.578255415E-1
3.720385708E0,-7.262447662E0,-8.412356415E0,1.695973206E-1,3.726624708E0,2.552979290E-1,-1.161210656E0,4.345167428E-2
3.730367708E0,-8.043822784E0,-3.488345947E0,6.246510315E0,3.736606708E0,1.556077003E0,2.572588027E-1,4.696288109E-1
3.740349708E0,-6.873107300E0,-2.062710571E-1,6.148464203E0,3.746588708E0,2.439898491E0,1.817636490E0,8.994462490E-1
3.750331708E0,-5.816155243E0,5.773493958E-1,4.245770874E0,3.756570708E0,2.860566854E0,3.372124434E0,1.293652177E0
3.760313708E0,-5.094356232E0,-5.224136353E-2,3.794010315E0,3.766553583E0,2.918505192E0,4.372386932E0,1.584059834E0
3.770296583E0,-3.986060944E0,-1.703008575E0,5.019811249E0,3.776535583E0,2.754458189E0,4.429959297E0,1.829623222E0
3.780278583E0,-3.173849945E0,-4.629872131E0,6.445446625E0,3.786517583E0,2.398295403E0,3.717739582E0,2.063779354E0
3.790260583E0,-3.405867462E0,-8.694968719E0,6.777456207E0,3.796499583E0,1.952154636E0,2.496816158E0,2.078396082E0
3.800242583E0,-3.240760803E0,-1.288819885E1,6.276148682E0,3.806481583E0,1.697298050E0,1.098137140E0,1.832608223E0
3.810224583E0,-2.495760040E0,-1.650003799E1,5.056335297E0,3.816463583E0,1.681528687E0,1.093036309E-2,1.477512360E0
3.820206583E0,-4.349954224E-1,-1.861304398E1,2.114502869E0,3.826445583E0,1.620604634E0,-2.280824929E-1,1.025999546E0
3.830188583E0,3.271746368E0,-1.922257645E1,-2.166744232E0,3.836427583E0,1.530909896E0,5.747076869E-2,6.015298963E-1
3.840170583E0,6.488407288E0,-1.799303329E1,-3.961511993E0,3.846409583E0,1.515269756E0,2.510588765E-1,2.370182574E-1
3.850152583E0,8.034242706E0,-1.559651688E1,-2.811902618E0,3.856391583E0,1.598177314E0,3.362334371E-1,-5.212514475E-2
3.860134583E0,8.016280060E0,-1.284299286E1,-9.535171509E-1,3.866373583E0,1.719403625E0,4.531760514E-1,-3.031440675E-1
3.870116583E0,6.842121735E0,-1.076531342E1,5.319937134E-1,3.876356583E0,1.732765436E0,6.044664383E-1,-5.337804556E-1
3.880099583E0,4.761598206E0,-9.714348907E0,7.821235657E-1,3.886338583E0,1.668018341E0,7.843339443E-1,-6.954209805E-1
3.890081583E0,1.834435272E0,-9.205257568E0,5.794450378E-1,3.896320583E0,1.641668439E0,8.555969596E-1,-7.691996098E-1
3.900063583E0,-4.442761230E-1,-8.231981506E0,6.643185425E-1,3.906302583E0,1.699217916E0,7.976130247E-1,-6.848674417E-1
3.910045583E0,-2.257754974E0,-7.239245911E0,9.650431824E-1,3.916284583E0,1.749596596E0,5.477802157E-1,-5.000200868E-1
3.920027583E0,-3.420836334E0,-6.697372742E0,1.043180695E0,3.926266583E0,1.736781478E0,2.124475539E-1,-2.847325504E-1
3.930009583E0,-3.945944366E0,-6.443650360E0,9.704319763E-1,3.936248583E0,1.646198630E0,5.467868596E-2,-6.044005603E-2
3.939991583E0,-4.118834839E0,-6.250102844E0,8.321195984E-1,3.946230583E0,1.501320243E0,9.321621805E-2,1.629341841E-1
3.949973583E0,-4.014352112E0,-6.390211487E0,4.354444885E-1,3.956212583E0,1.313889980E0,2.632287443E-1,3.347618282E-1
3.959955583E0,-3.467688904E0,-6.838978271E0,4.176315308E-2,3.966194583E0,1.117520213E0,4.607322216E-1,4.536970258E-1
3.969937583E0,-2.912792816E0,-7.376959534E0,-1.932481384E-1,3.976176583E0,9.559412599E-1,6.516084671E-1,5.328651667E-1
3.979919583E0,-2.352507935E0,-7.942633209E0,-4.326004028E-2,3.986158583E0,7.808623910E-1,8.824107647E-1,5.813882351E-1
3.989901583E0,-1.890867920E0,-8.494834900E0,-1.438508606E-1,3.996140583E0,6.305032372E-1,9.820868969E-1,6.172742844E-1
3.999883583E0,-1.364412689E0,-8.740623779E0,-1.330732727E-1,4.006122583E0,5.370686650E-1,8.996913433E-1,6.379358768E-1
4.009865583E0,-6.577322388E-1,-8.920549622E0,4.837939453E-1,4.016104583E0,4.707092047E-1,8.315511942E-1,6.567652822E-1
4.019848583E0,-1.212478638E-1,-9.267228699E0,1.046024780E0,4.026087583E0,4.787839055E-1,8.367056847E-1,6.028213501E-1
4.029830583E0,4.644841003E-1,-9.600435791E0,1.427731018E0,4.036069583E0,6.410586238E-1,9.923402667E-1,5.197654366E-1
4.039812583E0,7.976911926E-1,-9.449250183E0,2.190844116E0,4.046051583E0,9.244394302E-1,1.123445868E0,4.150060117E-1
4.049794583E0,1.142873383E0,-8.920399933E0,2.744093628E0,4.056033583E0,1.277859807E0,1.162338853E0,2.950197458E-1
4.059776583E0,1.286275177E0,-8.099656677E0,2.971620483E0,4.066015583E0,1.602097511E0,1.155964494E0,2.006570399E-1
4.069758583E0,1.152752838E0,-7.483837280E0,2.906206512E0,4.075997583E0,1.832845926E0,1.134473801E0,1.609624773E-1
4.079740583E0,5.876779175E-1,-7.487130432E0,2.438279572E0,4.085979583E0,1.968988061E0,1.063864708E0,1.568116844E-1
4.089722583E0,-1.454974365E-1,-8.077353058E0,1.790426788E0,4.095961583E0,2.015445948E0,9.097120762E-1,2.119033486E-1
4.099704583E0,-9.458830261E-1,-9.133556671E0,9.855505371E-1,4.105943583E0,1.988564730E0,7.363821268E-1,3.503592312E-1
4.109686583E0,-1.579964447E0,-1.012135254E1,2.091151428E-1,4.115925583E0,1.859500527E0,6.553807259E-1,5.325380564E-1
4.119668583E0,-1.538650360E0,-1.081126785E1,-4.403842163E-1,4.125907583E0,1.609571338E0,6.410281658E-1,6.946204305E-1
4.129650583E0,-7.108717346E-1,-1.116408417E1,-1.150208130E0,4.135889583E0,1.286590457E0,5.911586881E-1,7.616499066E-1
4.139632583E0,4.308041382E-1,-1.133667526E1,-1.739682312E0,4.145871583E0,9.659812450E-1,4.425748587E-1,7.075760365E-1
4.149614583E0,1.280587006E0,-1.168979095E1,-1.951940918E0,4.155853583E0,7.001370788E-1,2.532492280E-1,5.657522082E-1
4.159597583E0,1.744622040E0,-1.237566467E1,-1.780547333E0,4.165836583E0,4.798089862E-1,1.380837411E-1,3.663179576E-1
4.169579583E0,1.947001190E0,-1.322664505E1,-1.478026428E0,4.175818583E0,2.859894633E-1,2.370842248E-1,1.839543581E-1
4.179561583E0,1.861079865E0,-1.352078339E1,-1.122665405E0,4.185800583E0,1.250298768E-1,6.031727791E-1,3.474809229E-2
4.189543583E0,1.510957947E0,-1.282832336E1,-6.728507996E-1,4.195782583E0,5.478648469E-3,1.039611101E0,-1.155039296E-1
4.199525583E0,1.011746063E0,-1.192300598E1,-2.143542480E-1,4.205764583E0,-3.332094476E-2,1.294698000E0,-2.449929416E-1
4.209507583E0,2.960842896E-1,-1.136601425E1,1.502874756E-1,4.215746583E0,1.273402665E-2,1.337760448E0,-3.248735964E-1
4.219489583E0,-5.770500183E-1,-1.120090759E1,3.327580261E-1,4.225728583E0,1.220168397E-1,1.233418345E0,-3.854951560E-1
4.229471583E0,-1.277293854E0,-1.103445374E1,2.677931213E-1,4.235710583E0,2.267976105E-1,1.140622616E0,-4.072557688E-1
4.239453583E0,-1.970801697E0,-1.073148376E1,-1.706451416E-2,4.245692583E0,2.539775670E-1,1.129221797E0,-3.693635166E-1
4.249435583E0,-2.557282104E0,-1.033495834E1,-6.756948853E-1,4.255674583E0,1.668061465E-1,1.206212521E0,-2.388977259E-1
4.259417583E0,-3.276536407E0,-1.005533981E1,-1.586700439E0,4.265656583E0,-3.553336859E-2,1.235765338E0,-5.238989741E-2
4.269399583E0,-3.414250031E0,-1.009006760E1,-2.267634430E0,4.275638583E0,-2.248712033E-1,1.718467951E0,1.497711428E-2
4.279381583E0,-1.313368835E0,-1.055949142E1,-1.212478638E0,4.285620583E0,-7.686050534E-1,1.141654372E0,1.864420772E-1
4.289363583E0,-7.182064819E-1,-1.144998962E1,-2.952160950E0,4.295603583E0,-1.367171288E0,6.880935431E-1,2.887924612E-1
4.299346583E0,-8.813671875E-1,-1.335941895E1,-3.323089600E0,4.305585583E0,-1.780615330E0,2.638961971E-1,2.717002928E-1
4.309328583E0,3.739224243E-1,-1.489163269E1,-1.532363434E0,4.315567583E0,-2.008258343E0,-7.440149784E-2,1.388750225E-1
4.319310583E0,7.412585449E-1,-1.493623993E1,-9.195378113E-1,4.325549583E0,-2.313749790E0,-9.663756192E-2,-9.116803110E-2
4.329292583E0,1.392105103E0,-1.365759888E1,-1.313219147E0,4.335531583E0,-2.786985636E0,2.717270143E-2,-3.307101130E-1
4.339274583E0,2.098635864E0,-1.208062820E1,-2.175725555E0,4.345513583E0,-3.265365839E0,8.048541844E-3,-5.273531079E-1
4.349256583E0,2.318827972E0,-1.117351456E1,-1.761237488E0,4.355495583E0,-3.700663805E0,-3.504292965E-1,-6.375631094E-1
4.359238583E0,2.230511627E0,-1.172302185E1,-5.616320801E-1,4.365477583E0,-3.990716696E0,-9.959850907E-1,-6.198032498E-1
4.369220583E0,1.551373901E0,-1.295151718E1,7.426057434E-1,4.375459583E0,-4.043587685E0,-1.438998103E0,-5.976734161E-1
4.379202583E0,5.677693176E-1,-1.392599075E1,2.281405792E0,4.385441583E0,-3.974518061E0,-1.381174207E0,-6.634060740E-1
4.389184583E0,-1.441502380E-1,-1.446786392E1,2.707719269E0,4.395423583E0,-3.864875317E0,-1.037922502E0,-7.077018619E-1
4.399166583E0,-1.681453400E0,-1.517888535E1,2.190844116E0,4.405405583E0,-3.585194588E0,-6.946212053E-1,-7.161850929E-1
4.409148583E0,-3.806434479E0,-1.635079834E1,2.290686493E0,4.415387583E0,-3.176845312E0,-2.620132267E-1,-6.457180381E-1
4.419130583E0,-5.925278320E0,-1.731898499E1,2.978206787E0,4.425369583E0,-2.737810850E0,3.875296116E-1,-4.368266165E-1
4.429113583E0,-7.618407440E0,-1.760863266E1,3.555705872E0,4.435352583E0,-2.382412434E0,8.528093696E-1,-2.925912142E-1
4.439095583E0,-7.127428436E0,-1.585323303E1,3.359014893E0,4.445334583E0,-2.170253754E0,9.193614721E-1,-3.459548354E-1
4.449077583E0,-4.584965515E0,-1.266875519E1,2.341281281E0,4.455316583E0,-2.018704653E0,9.252228141E-1,-4.724872410E-1
4.459059583E0,-2.327809296E0,-1.066292633E1,1.683249664E0,4.465298583E0,-1.922573090E0,9.190229774E-1,-5.457094908E-1
4.469041583E0,-9.095086670E-1,-9.887688446E0,9.958790588E-1,4.475280583E0,-1.941095352E0,7.567822337E-1,-5.675035715E-1
4.479023583E0,8.816665649E-2,-9.472901001E0,-2.820135498E-1,4.485262583E0,-2.054795027E0,4.536450207E-1,-5.327817798E-1
4.489005583E0,5.372328186E-1,-9.147926788E0,-1.453327789E0,4.495244583E0,-2.165313959E0,3.370977193E-2,-5.613626838E-1
4.498987583E0,1.009949799E0,-8.917106781E0,-1.846410370E0,4.505226583E0,-2.168577433E0,-3.702765703E-1,-6.315396428E-1
4.508969583E0,1.578766937E0,-9.182355194E0,-1.379381561E0,4.515208583E0,-2.078754902E0,-5.591430664E-1,-7.567938566E-1
4.518951583E0,1.711091766E0,-9.701176300E0,-8.556207275E-1,4.525190583E0,-1.956018567E0,-5.718412995E-1,-9.701561928E-1
4.528933583E0,2.287692719E0,-1.013901581E1,-6.337820435E-1,4.535172583E0,-1.827102423E0,-5.910373926E-1,-1.146882772E0
4.538915583E0,2.637964325E0,-1.048749115E1,-4.751119995E-1,4.545154583E0,-1.666907907E0,-6.710036397E-1,-1.236126065E0
4.548897583E0,2.736609192E0,-1.052820648E1,-1.535806274E-1,4.555136583E0,-1.535316586E0,-8.721851707E-1,-1.299240470E0
4.558879583E0,2.829715576E0,-1.027149033E1,2.013313293E-1,4.565118583E0,-1.481806755E0,-1.050573587E0,-1.370567083E0
4.568862583E0,2.560275879E0,-9.681716766E0,3.617976379E-1,4.575101583E0,-1.508868098E0,-1.259425163E0,-1.420606256E0
4.578844583E0,1.656156006E0,-9.051826630E0,5.054988098E-1,4.585083583E0,-1.580909610E0,-1.606401920E0,-1.392109632E0
4.588826583E0,5.721102905E-1,-8.377478943E0,6.021977234E-1,4.595065583E0,-1.597090840E0,-1.930127859E0,-1.309242845E0
4.598808583E0,-5.737568665E-1,-7.367828522E0,1.147663422E0,4.605047583E0,-1.534749746E0,-2.253474474E0,-1.261847615E0
4.608790583E0,-1.015787659E0,-6.345454559E0,1.814227295E0,4.615029583E0,-1.431000233E0,-2.619326591E0,-1.227175832E0
4.618772583E0,-1.077309723E0,-5.392236786E0,2.024689636E0,4.625011583E0,-1.308163047E0,-2.775757074E0,-1.147915125E0
4.628754583E0,-1.605860596E0,-4.423900452E0,2.138752441E0,4.634993583E0,-1.163115382E0,-2.803250313E0,-1.032179594E0
4.638736583E0,-1.929637299E0,-3.764072571E0,1.993554382E0,4.644975583E0,-9.711040854E-1,-2.611927271E0,-9.297447801E-1
4.648718583E0,-2.155068512E0,-3.213816833E0,1.913470917E0,4.654957583E0,-7.040011287E-1,-2.359643221E0,-8.487961292E-1
4.658700583E0,-2.118993530E0,-2.813549194E0,1.832339630E0,4.664939583E0,-3.787652552E-1,-2.102814198E0,-7.353763580E-1
4.668682583E0,-2.622546387E0,-2.520308990E0,1.858086090E0,4.674921583E0,-2.087160759E-2,-1.965477109E0,-6.322073936E-1
4.678664583E0,-2.808759155E0,-2.399210815E0,1.759441223E0,4.684903583E0,3.683403134E-1,-1.940691113E0,-5.504148006E-1
4.688646583E0,-2.794688416E0,-2.310146027E0,1.629062347E0,4.694885583E0,7.687902451E-1,-1.780632615E0,-5.187225938E-1
4.698628583E0,-2.815345459E0,-2.391427002E0,1.610800323E0,4.704867583E0,1.166820765E0,-1.626229644E0,-4.802191556E-1
4.708611583E0,-2.874322815E0,-2.602338409E0,1.268312531E0,4.714850583E0,1.532716751E0,-1.360718727E0,-4.540555179E-1
4.718593583E0,-2.893782349E0,-2.788850555E0,5.222639465E-1,4.724832583E0,1.845494032E0,-1.138594627E0,-3.756866753E-1
4.728575583E0,-2.996618500E0,-3.064876556E0,-5.945635986E-1,4.734814583E0,2.092563868E0,-8.815971613E-1,-2.517580986E-1
4.738557583E0,-3.097957764E0,-3.438050537E0,-1.613195343E0,4.744796583E0,2.305676937E0,-6.934033036E-1,-9.741804004E-2
4.748539583E0,-3.034789124E0,-4.080215149E0,-2.702629852E0,4.754778583E0,2.473784924E0,-4.481495023E-1,1.004246995E-1
4.758521583E0,-3.397784271E0,-4.993765411E0,-3.548670502E0,4.764760583E0,2.571395636E0,-1.623917669E-1,2.993154228E-1
4.768502833E0,-3.881428528E0,-6.936874695E0,-4.600533142E0,4.774741833E0,2.470371723E0,2.744959593E-1,4.126083255E-1
4.778484833E0,-3.971092072E0,-9.889185333E0,-6.394552460E0,4.784723833E0,2.079838753E0,7.153931856E-1,4.073190391E-1
4.788466833E0,-3.328029327E0,-1.377929581E1,-8.582103424E0,4.794705833E0,1.354721904E0,8.281571269E-1,3.024005890E-1
4.798448833E0,-2.471510468E0,-1.785771469E1,-1.134685410E1,4.804687833E0,3.897310197E-1,2.617120743E-1,1.693128198E-1
4.808430833E0,-1.885479126E0,-2.127151566E1,-1.488774078E1,4.814669833E0,-7.904088497E-1,-1.022114873E0,4.441301525E-2
4.818412833E0,-1.225651245E0,-2.351040985E1,-1.822804459E1,4.824651833E0,-2.025026798E0,-2.766421795E0,-3.204139471E-1
4.828394833E0,1.512155457E0,-2.316986801E1,-2.111958160E1,4.834633833E0,-2.435837984E0,-3.661670446E0,-7.631347179E-1
4.838376833E0,4.748874664E0,-1.944815735E1,-1.747196686E1,4.844616833E0,-2.020179510E0,-2.722894669E0,-1.032450557E0
4.848359833E0,5.998326416E0,-1.400607422E1,-8.773106232E0,4.854598833E0,-1.202648640E0,-7.703255415E-1,-1.158753157E0
4.858341833E0,6.348148956E0,-8.558302917E0,-2.274969177E0,4.864580833E0,-3.354612589E-1,7.012168765E-1,-1.151820421E0
4.868323833E0,6.184090118E0,-3.991898804E0,3.556604004E-1,4.874562833E0,4.199128151E-1,1.364140272E0,-9.379566312E-1
4.878305833E0,4.672084351E0,-1.631906433E0,1.498384094E-1,4.884544833E0,1.088660240E0,1.549222589E0,-4.864627123E-1
4.888287833E0,1.564995575E0,-3.763922882E0,-4.114942932E-1,4.894526833E0,1.746639013E0,1.689679265E0,6.406638026E-2
4.898269833E0,-1.472038879E0,-8.880283356E0,3.312611389E-1,4.904508833E0,2.255711555E0,2.107500792E0,4.814180434E-1
4.908251833E0,-2.737507324E0,-1.464494568E1,1.692081299E0,4.914490833E0,2.382137537E0,2.828747034E0,5.353463888E-1
4.918233833E0,-2.308649139E0,-1.952330109E1,3.594624939E0,4.924472833E0,1.661995888E0,3.234766006E0,1.459834576E-1
4.928215833E0,-1.177301788E0,-2.161145874E1,3.580404510E0,4.934454833E0,3.199266791E-1,2.104871035E0,-4.516701102E-1
4.938197833E0,-2.169288940E0,-2.114472931E1,-8.003855896E-1,4.944436833E0,-1.006085753E0,7.331913337E-3,-8.813972473E-1
4.948179833E0,-3.526516571E0,-1.795231796E1,-6.255341949E0,4.954418833E0,-1.700649619E0,-1.753419518E0,-1.023096442E0
4.958161833E0,-3.949087830E0,-1.309896057E1,-5.769452362E0,4.964400833E0,-1.820422053E0,-3.108434916E0,-1.109019399E0
4.968143833E0,-3.212020569E0,-9.571396179E0,-6.617438965E0,4.974382833E0,-1.378142953E0,-3.504439831E0,-7.899277210E-1
4.978125833E0,-5.174888763E0,-6.674769745E0,-4.702770538E0,4.984364833E0,-5.032525063E-1,-2.664421320E0,-2.240374237E-1
4.988108833E0,-8.034093018E0,-2.892435150E0,1.437760162E0,4.994347833E0,7.334892750E-1,-9.349204302E-1,1.355243474E-1
4.998090833E0,-7.783963165E0,6.975494385E-1,5.518424377E0,5.004329833E0,2.167079687E0,9.700520039E-1,4.170109034E-1
5.008072833E0,-5.902375946E0,2.201621704E0,7.275919647E0,5.014311833E0,3.159526348E0,2.611991644E0,7.941670418E-1
5.018054833E0,-5.597460022E0,9.864486694E-1,6.741830292E0,5.024293833E0,3.556388378E0,3.987782240E0,1.218349934E0
5.028036833E0,-5.257516937E0,-1.650916901E0,6.577322388E0,5.034275833E0,3.445237160E0,4.609208107E0,1.620712757E0
5.038018833E0,-4.783452759E0,-4.539460144E0,7.758516083E0,5.044257833E0,2.890064955E0,4.252329826E0,1.907618880E0
5.048000833E0,-4.283342743E0,-7.512876892E0,7.793243866E0,5.054239833E0,2.057961464E0,3.220795155E0,1.941403985E0
5.057982833E0,-3.840264130E0,-1.100870728E1,6.736740875E0,5.064221833E0,1.289647698E0,2.010536671E0,1.935633898E0
5.067964833E0,-4.267924805E0,-1.444690750E1,5.458249512E0,5.074203833E0,1.231003881E0,2.270866930E-2,1.955378413E0
5.077946833E0,-3.596570892E0,-1.729024475E1,3.650608521E0,5.084185833E0,1.676626444E0,-1.992994189E0,1.892331481E0
5.087928833E0,-1.591191101E-1,-2.038281372E1,-8.113128662E-1,5.094167833E0,1.615085244E0,-2.023373365E0,1.556030035E0
5.097910833E0,6.096522217E0,-2.056528427E1,-6.714437256E0,5.104149833E0,1.298073411E0,-1.335772276E0,9.901231527E-1
5.107892833E0,1.035396881E1,-1.839360031E1,-7.810009003E0,5.114131833E0,1.099871278E0,-1.072155476E0,2.979138196E-1
5.117874833E0,1.133637589E1,-1.501527557E1,-4.836741943E0,5.124113833E0,1.163040400E0,-1.051673651E0,-2.914168239E-1
5.127857833E0,9.608369293E0,-1.254286697E1,-1.336121521E0,5.134096833E0,1.306677461E0,-9.608051777E-1,-6.628686786E-1
5.137839833E0,6.186335449E0,-1.099942657E1,8.611592102E-1,5.144078833E0,1.438075423E0,-5.164394379E-1,-9.142646790E-1
5.147821833E0,2.833906860E0,-9.541009369E0,1.877994690E0,5.154060833E0,1.599842310E0,1.179788858E-1,-1.132874966E0
5.157803833E0,3.487747192E-1,-7.766748962E0,2.237247620E0,5.164042833E0,1.875797153E0,6.961684823E-1,-1.215221286E0
5.167785833E0,-1.738634491E0,-6.346801758E0,2.350711670E0,5.174024833E0,2.173130751E0,8.848497868E-1,-1.112540126E0
5.177767833E0,-3.388952637E0,-5.489534454E0,1.989213409E0,5.184006833E0,2.269582987E0,7.612916827E-1,-8.522673249E-1
5.187749833E0,-4.544699249E0,-4.878056030E0,8.770262146E-1,5.193988833E0,2.095577955E0,4.811239243E-1,-4.945953190E-1
5.197731833E0,-5.654491425E0,-4.761149139E0,-3.655398560E-1,5.203970833E0,1.698137760E0,8.835612237E-2,-1.681543440E-1
5.207713833E0,-6.069129181E0,-5.224435730E0,-1.171014862E0,5.213952833E0,1.236773491E0,-1.979034692E-1,7.658103853E-2
5.217695833E0,-5.558840332E0,-6.123915253E0,-1.291663971E0,5.223934833E0,8.235245943E-1,-1.119661853E-1,3.346277773E-1
5.227677833E0,-4.963977356E0,-7.019502869E0,-9.624984741E-1,5.233916833E0,5.293085575E-1,1.676569134E-1,5.711417794E-1
5.237659833E0,-4.134252777E0,-7.535779266E0,-6.259982300E-1,5.243898833E0,4.167119563E-1,4.519256651E-1,7.429148555E-1
5.247641833E0,-3.237168274E0,-7.861950989E0,2.534230042E-1,5.253880833E0,4.291957617E-1,6.509863734E-1,7.632122636E-1
5.257623833E0,-2.115550690E0,-8.245603180E0,1.011296997E0,5.263862833E0,5.043206215E-1,6.771458387E-1,6.941602230E-1
5.267606833E0,-1.143921204E0,-8.533753967E0,1.450932770E0,5.273845833E0,6.612625122E-1,6.324856877E-1,6.093696356E-1
5.277588833E0,-4.334985352E-1,-8.731193390E0,1.782193909E0,5.283827833E0,8.991206288E-1,6.509837508E-1,5.031931400E-1
5.287570833E0,1.362167358E-1,-8.790470123E0,2.412084045E0,5.293809833E0,1.250933528E0,7.937784195E-1,4.269550145E-1
5.297552833E0,6.195616150E-1,-8.610843658E0,3.249592438E0,5.303791833E0,1.671303630E0,8.812459111E-1,3.334365189E-1
5.307534833E0,1.098116455E0,-8.399183807E0,3.698957977E0,5.313773833E0,2.034880877E0,8.073730469E-1,2.452986538E-1
5.317516833E0,1.077010345E0,-8.256231079E0,3.337908783E0,5.323755833E0,2.238080025E0,5.950495601E-1,1.906159669E-1
5.327498833E0,3.564088440E-1,-8.592581635E0,2.117646332E0,5.333737833E0,2.288705826E0,4.574863613E-1,2.089653164E-1
5.337480833E0,-6.491999817E-1,-9.622889099E0,9.089099121E-1,5.343719833E0,2.186666965E0,4.223968089E-1,3.046404421E-1
5.347462833E0,-1.478774872E0,-1.078043198E1,-4.025129700E-1,5.353701833E0,1.914617419E0,4.337279797E-1,4.748552144E-1
5.357444833E0,-1.782343597E0,-1.133338211E1,-1.874701538E0,5.363683833E0,1.464221597E0,4.799431562E-1,6.569650769E-1
5.367426833E0,-1.161285095E0,-1.128323639E1,-3.158731384E0,5.373665833E0,9.388268590E-1,4.430608451E-1,8.065496087E-1
5.377408833E0,3.504212952E-1,-1.126542343E1,-3.730691986E0,5.383647833E0,4.997541606E-1,2.029241621E-1,8.352049589E-1
5.387390833E0,1.716779938E0,-1.178963333E1,-3.373684387E0,5.393629833E0,2.814678848E-1,-7.097861916E-2,7.060511708E-1
5.397372833E0,2.508184204E0,-1.252220993E1,-2.227218475E0,5.403611833E0,2.262081206E-1,-8.218893409E-2,4.852884114E-1
5.407354833E0,2.905158691E0,-1.295885193E1,-7.966433716E-1,5.413594833E0,1.825369596E-1,2.208505571E-1,2.456545383E-1
5.417337833E0,3.253334656E0,-1.282203644E1,2.134561157E-1,5.423576833E0,4.685982317E-2,6.477723122E-1,5.146481469E-2
5.427319833E0,3.205134888E0,-1.244092896E1,6.822811890E-1,5.433558833E0,-1.109135076E-1,9.442965388E-1,-5.193274468E-2
5.437301833E0,2.426603851E0,-1.212867828E1,9.541159058E-1,5.443540833E0,-1.680172682E-1,9.287921786E-1,-7.915983349E-2
5.447283833E0,1.289268951E0,-1.210098587E1,1.225202179E0,5.453522833E0,-8.619169891E-2,6.123429537E-1,-8.103197068E-2
5.457265833E0,2.953358459E-1,-1.227657074E1,1.384171600E0,5.463504833E0,3.449103609E-2,1.576172560E-1,-6.680136919E-2
5.467247833E0,-5.189707947E-1,-1.216235825E1,8.831634521E-1,5.473486833E0,3.998554312E-4,-1.712535322E-1,-2.950356714E-2
5.477229833E0,-9.598040771E-1,-1.200159256E1,-3.703298950E-1,5.483468833E0,-2.614282966E-1,-3.286098838E-1,3.102635592E-2
5.487211833E0,-1.035696259E0,-1.219828354E1,-1.712888031E0,5.493450833E0,-6.403992772E-1,-3.906248212E-1,7.112530060E-3
5.497193833E0,-6.334826660E-1,-1.289553360E1,-2.307002563E0,5.503432833E0,-9.534423947E-1,-3.099949360E-1,-1.189966649E-1
5.507175833E0,-2.451901245E-1,-1.344519058E1,-1.758842468E0,5.513414833E0,-1.157800555E0,1.440830994E-3,-2.841670513E-1
5.517157833E0,-2.621049500E-1,-1.361808105E1,-5.983058167E-1,5.523396833E0,-1.281081200E0,3.404897153E-1,-4.407159090E-1
5.527139833E0,-5.146298218E-1,-1.353709946E1,2.885998535E-1,5.533378833E0,-1.416551113E0,3.693712950E-1,-5.707466602E-1
5.537121833E0,-5.843847656E-1,-1.313488586E1,2.176473999E-1,5.543360833E0,-1.651961803E0,1.098603830E-1,-6.502110958E-1
5.547103833E0,-4.191284180E-1,-1.255768616E1,-5.926176453E-1,5.553342833E0,-2.068964481E0,-2.105789930E-1,-6.019086242E-1
5.557086833E0,-4.159849548E-1,-1.208152634E1,-1.465302887E0,5.563325833E0,-2.661963224E0,-4.945646524E-1,-4.719975591E-1
5.567068833E0,-2.318678284E-1,-1.193707672E1,-1.953138428E0,5.573307833E0,-3.308723688E0,-7.129190564E-1,-3.654926717E-1
5.577050833E0,2.270777893E-1,-1.208092758E1,-1.515298920E0,5.583289833E0,-3.817674160E0,-9.064086080E-1,-3.605785966E-1
5.587032833E0,4.782554626E-1,-1.206565933E1,-4.011657715E-1,5.593271833E0,-4.050455570E0,-1.161116004E0,-4.363089800E-1
5.597014833E0,-5.149291992E-2,-1.201955521E1,8.656498718E-1,5.603253833E0,-3.958594799E0,-1.352533102E0,-5.488954186E-1
5.606996833E0,-1.143172760E0,-1.224184296E1,2.368075562E0,5.613235833E0,-3.705073118E0,-1.297068715E0,-5.927995443E-1
5.616978833E0,-2.983595581E0,-1.311048660E1,2.919229431E0,5.623217833E0,-3.466434002E0,-9.638039470E-1,-5.730873346E-1
5.626960833E0,-5.376669159E0,-1.436068680E1,2.260000305E0,5.633199833E0,-3.254821062E0,-5.428097248E-1,-4.920970500E-1
5.636942833E0,-7.312443695E0,-1.550430862E1,1.836530914E0,5.643181833E0,-2.996444464E0,-1.813149005E-1,-3.481601179E-1
5.646924833E0,-8.592881012E0,-1.613764160E1,2.220033417E0,5.653163833E0,-2.714396477E0,1.420689225E-1,-1.333123744E-1
5.656906833E0,-8.607251129E0,-1.552197189E1,2.766397247E0,5.663145833E0,-2.520402431E0,3.277168274E-1,3.637467325E-2
5.666888833E0,-6.968608704E0,-1.336854996E1,2.639311523E0,5.673127833E0,-2.433915377E0,3.204515576E-1,5.101961270E-2
5.676870833E0,-4.438869324E0,-1.095407089E1,2.128124542E0,5.683109833E0,-2.373866796E0,2.290518433E-1,4.163170606E-2
5.686852833E0,-2.791245575E0,-9.747729492E0,1.797761536E0,5.693091833E0,-2.310493946E0,1.560287625E-1,1.873677596E-2
5.696834833E0,-1.621727600E0,-9.302255859E0,1.276695099E0,5.703074833E0,-2.235361338E0,1.137819812E-1,-1.089435350E-2
5.706817833E0,-6.291416931E-1,-9.059311066E0,4.739144897E-1,5.713056833E0,-2.114092588E0,3.264725953E-2,-8.194326609E-2
5.716799833E0,2.142045593E-1,-8.678353271E0,-2.619552612E-2,5.723038833E0,-2.036559343E0,-1.993947476E-1,-1.871983111E-1
5.726781833E0,8.635542297E-1,-8.383017426E0,-5.860313416E-1,5.733020833E0,-2.030545473E0,-5.231359601E-1,-3.250378668E-1
5.736763833E0,1.410816193E0,-8.703500977E0,-1.094074860E0,5.743002833E0,-2.065415859E0,-6.954621673E-1,-4.813430309E-1
5.746745833E0,1.788780212E0,-9.196126556E0,-1.045126648E0,5.752984833E0,-2.089729071E0,-6.131137013E-1,-6.529766321E-1
5.756727833E0,1.969155121E0,-9.519454193E0,-7.934999084E-1,5.762966833E0,-2.055968523E0,-3.860693574E-1,-8.144009113E-1
5.766710208E0,1.815873871E0,-9.692045288E0,-5.107379150E-1,5.772949208E0,-1.915359259E0,-1.265302300E-1,-9.674530625E-1
5.776692208E0,1.462009735E0,-9.539512482E0,-8.322692871E-2,5.782931208E0,-1.692222834E0,-5.266212672E-2,-1.049492478E0
5.786674208E0,8.310717773E-1,-9.387428741E0,3.314108276E-1,5.792913208E0,-1.532431960E0,-3.264175653E-1,-1.058522820E0
5.796656208E0,1.633103943E-1,-9.279503174E0,-4.730163574E-2,5.802895208E0,-1.438100934E0,-6.419648528E-1,-1.007411122E0
5.806638208E0,-5.254074097E-1,-8.901688843E0,-9.699829102E-2,5.812877208E0,-1.429739594E0,-9.963803291E-1,-9.373368025E-1
5.816620208E0,-9.613009644E-1,-8.268355865E0,1.362167358E-2,5.822859208E0,-1.462297440E0,-1.299878836E0,-8.209308386E-1
5.826602208E0,-1.585802307E0,-7.581434326E0,9.056167603E-2,5.832841208E0,-1.459941745E0,-1.544396877E0,-7.164475322E-1
5.836584208E0,-1.988315277E0,-6.653813324E0,5.438191223E-1,5.842823208E0,-1.396556616E0,-1.708293438E0,-6.671918035E-1
5.846566208E0,-1.972897339E0,-5.595214691E0,7.955955505E-1,5.852806208E0,-1.271869063E0,-1.858007789E0,-6.770078540E-1
5.856548208E0,-1.961371307E0,-4.543501740E0,8.187973022E-1,5.862788208E0,-1.068052530E0,-1.822754383E0,-6.872336268E-1
5.866531208E0,-2.142494659E0,-3.944297791E0,8.367599487E-1,5.872770208E0,-8.215798140E-1,-1.737310767E0,-6.729169488E-1
5.876513208E0,-2.415975952E0,-3.245700531E0,6.017486572E-1,5.882752208E0,-5.186412334E-1,-1.402993321E0,-6.257473230E-1
5.886495208E0,-2.689157867E0,-2.888393555E0,5.159770203E-1,5.892734208E0,-1.832664758E-1,-1.064184070E0,-5.740858316E-1
5.896477208E0,-2.728376312E0,-2.663112030E0,3.963757324E-1,5.902716208E0,1.585270762E-1,-7.773654461E-1,-5.112021565E-1
5.906459208E0,-2.628833313E0,-2.554438019E0,1.514849854E-1,5.912698208E0,4.928608537E-1,-4.372772872E-1,-4.357984364E-1
5.916441208E0,-2.809507599E0,-2.758014679E0,1.169068909E-1,5.922680208E0,8.086968660E-1,-1.695107967E-1,-3.627985418E-1
5.926423208E0,-2.771486664E0,-2.978057098E0,-1.246907043E-1,5.932662208E0,1.105098963E0,-5.339246243E-2,-3.048221767E-1
5.936405208E0,-2.624043274E0,-3.357218628E0,-2.829116821E-1,5.942644208E0,1.386312008E0,-4.317072034E-2,-2.532833517E-1
5.946387208E0,-2.471510468E0,-3.804039459E0,-1.787283325E-1,5.952626208E0,1.661888123E0,-6.367722154E-2,-1.814671457E-1
5.956369208E0,-2.389481049E0,-4.173022156E0,-2.833607483E-1,5.962608208E0,1.913972855E0,-1.048702002E-1,-9.100570530E-2
5.966351208E0,-2.445614319E0,-4.546645203E0,-8.788224792E-1,5.972590208E0,2.124149084E0,-2.023143023E-1,1.311690453E-2
5.976333208E0,-2.462678833E0,-5.095553741E0,-1.919757843E0,5.982572208E0,2.246677160E0,-3.525346816E-1,1.020909846E-1
5.986315208E0,-2.398162994E0,-5.793252869E0,-3.373235321E0,5.992554208E0,2.233580828E0,-4.573792815E-1,1.868883967E-1
5.996297208E0,-2.407593384E0,-6.790030060E0,-5.118456116E0,6.002536208E0,2.111097813E0,-4.697912037E-1,2.661401033E-1
6.006280208E0,-2.264790344E0,-8.118667145E0,-6.558611298E0,6.012519208E0,1.920861006E0,-2.668843567E-1,3.206677139E-1
6.016262208E0,-2.010768585E0,-9.880204010E0,-7.380402374E0,6.022501208E0,1.488221765E0,2.600082159E-1,3.451054096E-1
6.026244208E0,-1.703457642E0,-1.237401810E1,-9.622140656E0,6.032483208E0,6.521739364E-1,1.037284374E0,3.088566959E-1
6.036226208E0,-1.216669922E0,-1.600112549E1,-1.451516556E1,6.042465208E0,-2.012248337E-1,1.293956637E0,2.029414326E-1
6.046208208E0,-1.059945831E0,-2.055405762E1,-1.735416183E1,6.052447208E0,-7.940560579E-1,5.178193450E-1,-3.474608064E-2
6.056190208E0,-1.115929413E0,-2.411260757E1,-1.597492996E1,6.062429208E0,-1.282313704E0,-6.421992779E-1,-4.209680855E-1
6.066172208E0,-2.853067017E-1,-2.400064041E1,-1.455109085E1,6.072411208E0,-1.470462561E0,-1.420335650E0,-8.698508143E-1
6.076154208E0,9.521699524E-1,-1.983016296E1,-1.213107330E1,6.082393208E0,-1.243491173E0,-1.554096818E0,-1.143012047E0
6.086136208E0,8.586145020E-1,-1.410711411E1,-8.717422028E0,6.092375208E0,-7.730536461E-1,-1.144260406E0,-1.214501858E0
6.096118208E0,1.347198486E-1,-9.457632751E0,-6.316115570E0,6.102357208E0,-2.439160347E-1,-2.998260558E-1,-1.067961454E0
6.106100208E0,-2.869532776E-1,-6.403982849E0,-4.699327698E0,6.112339208E0,1.386285722E-1,6.597877741E-1,-7.026841640E-1
6.116082208E0,-8.080197144E-1,-5.465733948E0,-4.323459320E0,6.122321208E0,2.894836068E-1,1.099417448E0,-1.206694469E-1
6.126064208E0,-2.035467224E0,-6.742578735E0,-4.412524109E0,6.132303208E0,2.345031202E-1,1.093869925E0,4.082799256E-1
6.136046208E0,-3.054847412E0,-9.542805634E0,-5.007237396E0,6.142285208E0,1.904810816E-1,1.089166164E0,6.729699373E-1
6.146028208E0,-3.039429474E0,-1.287921753E1,-4.328249359E0,6.152267208E0,3.700240552E-1,1.393167615E0,6.657382250E-1
6.156011208E0,-2.052232361E0,-1.568408478E1,-7.635621643E-1,6.162250208E0,6.248776317E-1,1.694078445E0,2.413123995E-1
6.165993208E0,-8.936416626E-2,-1.670990158E1,4.452640686E0,6.172232208E0,9.549612403E-1,1.328249335E0,-4.528863132E-1
6.175975208E0,1.767973480E0,-1.402688095E1,7.889194336E0,6.182214208E0,1.123952627E0,7.415152192E-1,-7.950031757E-1
6.185957208E0,4.581971741E-1,-9.474397888E0,6.573879547E0,6.192196208E0,9.762329459E-1,5.569202900E-1,-7.429124117E-1
6.195939208E0,-2.449506226E0,-6.527925110E0,2.964585114E0,6.202178208E0,6.614438891E-1,2.789677680E-1,-5.399198532E-1
6.205921208E0,-4.567451935E0,-5.437891846E0,-4.983137512E-1,6.212160208E0,2.420091331E-1,-6.393540502E-1,-2.122997791E-1
6.215903208E0,-6.663992157E0,-4.671934662E0,-4.876110077E0,6.222142208E0,1.117378846E-2,-1.477544069E0,2.800148427E-1
6.225885208E0,-8.483907623E0,-3.886967010E0,-6.532116394E0,6.232124208E0,1.480939835E-1,-1.003796458E0,8.027250171E-1
6.235867208E0,-8.979227600E0,-3.371588745E0,-4.318669281E0,6.242106208E0,6.874421835E-1,4.582598209E-1,1.217377663E0
6.245849208E0,-7.652835846E0,-3.361858978E0,-7.300318909E-1,6.252088208E0,1.485396981E0,1.981882095E0,1.455916762E0
6.255831208E0,-5.262007599E0,-3.795956268E0,2.561174011E0,6.262070208E0,2.331948280E0,3.154129505E0,1.516818523E0
6.265813208E0,-2.669099579E0,-4.985981598E0,5.236560516E0,6.272052208E0,3.007023573E0,3.736326456E0,1.497904897E0
6.275795208E0,-6.417155457E-1,-7.241341553E0,7.229815521E0,6.282034208E0,3.266406536E0,3.496881962E0,1.463288069E0
6.285777208E0,5.599855042E-1,-1.006911118E1,7.647447052E0,6.292016208E0,2.929943323E0,2.728328466E0,1.298776746E0
6.295759208E0,1.642534332E0,-1.240754837E1,5.971083069E0,6.301998208E0,2.142018795E0,1.988509297E0,9.287841320E-1
6.305742208E0,3.044518890E0,-1.377705048E1,3.156186676E0,6.311981208E0,1.243541360E0,1.621103644E0,5.672371984E-1
6.315724208E0,4.201163635E0,-1.472458008E1,-5.728587341E-1,6.321963208E0,6.794210672E-1,1.190468431E0,4.445517361E-1
6.325706208E0,4.217030640E0,-1.591056381E1,-3.703598328E0,6.331945208E0,6.273472905E-1,3.066398203E-1,4.997227192E-1
6.335688208E0,4.308340759E0,-1.576955704E1,-4.222419434E0,6.341927208E0,7.119095325E-1,-4.592791796E-1,4.691259265E-1
6.345670208E0,4.660109253E0,-1.369906265E1,-3.077600098E0,6.351909208E0,7.634070516E-1,-7.355632782E-1,2.026994377E-1
6.355652208E0,4.733456726E0,-1.139610168E1,-1.486259308E0,6.361891208E0,8.527957797E-1,-5.561362505E-1,-1.458481550E-1
6.365634208E0,3.836821289E0,-1.028526169E1,2.779719543E-1,6.371873208E0,1.029572725E0,-1.797826141E-1,-3.723537028E-1
6.375616208E0,1.498982849E0,-1.011282028E1,1.420995026E0,6.381855208E0,1.220254540E0,9.100548178E-2,-5.702827573E-1
6.385598208E0,-5.833369446E-1,-9.788145447E0,1.631008301E0,6.391837208E0,1.375521421E0,2.465433180E-1,-7.486898899E-1
6.395580208E0,-1.974394226E0,-9.004674683E0,1.435365143E0,6.401819208E0,1.498486280E0,2.785718143E-1,-7.656661868E-1
6.405562208E0,-3.231779480E0,-8.172854462E0,1.031654663E0,6.411801208E0,1.577481270E0,2.176633775E-1,-6.240447164E-1
6.415544208E0,-4.207600250E0,-7.477700043E0,3.857478333E-1,6.421783208E0,1.617946386E0,1.468416601E-1,-3.880502880E-1
6.425526208E0,-4.521198120E0,-7.137307892E0,1.808239746E-1,6.431765208E0,1.588405371E0,1.170102358E-1,-1.245713681E-1
6.435508208E0,-4.329297180E0,-7.167994080E0,1.600172424E-1,6.441747208E0,1.513707638E0,8.907953650E-2,1.124387830E-1
6.445491208E0,-3.861669617E0,-7.428452454E0,2.442919922E-1,6.451730208E0,1.461465836E0,4.967793822E-2,3.313090205E-1
6.455473208E0,-3.200344849E0,-7.925718384E0,6.140231323E-1,6.461712208E0,1.430603266E0,1.362767369E-1,4.561271071E-1
6.465455208E0,-2.465373230E0,-8.460855560E0,8.134085083E-1,6.471694208E0,1.484333873E0,3.277662098E-1,5.078864694E-1
6.475437208E0,-1.664089508E0,-8.734785919E0,9.113049316E-1,6.481676208E0,1.538292170E0,3.663061559E-1,4.743380845E-1
6.485419208E0,-7.075785828E-1,-9.009315033E0,4.839436340E-1,6.491658208E0,1.573711157E0,2.932224572E-1,3.956980705E-1
6.495401208E0,5.807922363E-2,-9.190288696E0,8.068222046E-2,6.501640208E0,1.561646461E0,3.331909180E-1,3.198643029E-1
6.505383208E0,2.938389587E-1,-9.342671814E0,-9.729766846E-3,6.511622208E0,1.486688733E0,5.974944234E-1,2.500050664E-1
6.515365208E0,4.186793518E-1,-9.268126831E0,-2.468367004E-1,6.521604208E0,1.365647793E0,9.194399714E-1,1.893995255E-1
6.525347208E0,5.298980713E-1,-8.994046783E0,-3.403921509E-1,6.531586208E0,1.233836412E0,1.189498305E0,1.894669384E-1
6.535329208E0,3.396437073E-1,-8.699758759E0,-3.442840576E-2,6.541568208E0,1.116580606E0,1.307490945E0,2.071306109E-1
6.545311208E0,1.475930786E-1,-8.581205292E0,3.097059631E-1,6.551550208E0,1.060757041E0,1.335681438E0,2.572155595E-1
6.555293208E0,-8.861572266E-2,-8.591234436E0,8.851094055E-1,6.561532208E0,1.043866515E0,1.234624863E0,2.964689434E-1
6.565275208E0,-1.692979431E-1,-8.629255371E0,1.350641327E0,6.571514208E0,1.068505883E0,1.137199283E0,3.325466514E-1
6.575258208E0,-2.496807861E-1,-8.286767578E0,1.753004608E0,6.581497208E0,1.143849134E0,1.014430761E0,3.881486654E-1
6.585240208E0,-3.700305176E-1,-7.854167175E0,2.029479675E0,6.591479208E0,1.262293577E0,8.564591408E-1,4.237451851E-1
6.595222208E0,-5.424719238E-1,-7.532186737E0,2.183808746E0,6.601461208E0,1.404486895E0,7.035611868E-1,4.116405845E-1
6.605204208E0,-7.580236816E-1,-7.418273621E0,2.076481934E0,6.611443208E0,1.596274614E0,5.688809752E-1,3.954377472E-1
6.615186208E0,-1.236428833E0,-7.759863281E0,2.029928741E0,6.621425208E0,1.784750819E0,4.886378050E-1,3.999006748E-1
6.625168208E0,-1.746867371E0,-8.372988281E0,1.841320953E0,6.631407208E0,1.875807524E0,4.229328930E-1,4.296950102E-1
6.635150208E0,-1.940714264E0,-9.141340485E0,1.259480896E0,6.641389208E0,1.820872307E0,3.177015483E-1,4.971528947E-1
6.645132208E0,-2.051633606E0,-1.034528687E1,3.170407104E-1,6.651371208E0,1.663457513E0,1.669165939E-1,5.769799352E-1
6.655114208E0,-1.888323212E0,-1.185684357E1,-8.684939575E-1,6.661353208E0,1.412881255E0,2.502656542E-2,6.024341583E-1
6.665096208E0,-1.197958832E0,-1.337543564E1,-2.350412292E0,6.671335208E0,1.090015769E0,8.546334505E-2,5.438002348E-1
6.675078208E0,3.454815674E-1,-1.417941376E1,-3.866908722E0,6.681317208E0,7.204577327E-1,5.142951608E-1,4.389014840E-1
6.685060208E0,1.961670685E0,-1.392928391E1,-4.435875549E0,6.691299208E0,3.627690077E-1,1.095189929E0,2.869556546E-1
6.695042208E0,3.315605164E0,-1.294163773E1,-3.794908447E0,6.701282208E0,5.208756775E-2,1.497730732E0,8.853924274E-2
6.705025208E0,3.835923157E0,-1.181463135E1,-2.420316925E0,6.711264208E0,-1.882804483E-1,1.606083751E0,-8.737064153E-2
6.715007208E0,3.352578278E0,-1.146031815E1,-8.714877319E-1,6.721246208E0,-2.901985645E-1,1.453745842E0,-1.452901363E-1
6.724989208E0,2.074835358E0,-1.172212372E1,5.760021973E-1,6.731228208E0,-1.865630895E-1,1.049547911E0,-1.484099180E-1
6.734971208E0,8.491841125E-1,-1.178843582E1,1.554667053E0,6.741210208E0,9.187998623E-2,5.838853717E-1,-9.382710606E-2
6.744953208E0,-1.832189941E-1,-1.125374771E1,1.796414337E0,6.751192208E0,3.161567450E-1,1.947626323E-1,-8.317685872E-2
6.754935208E0,-6.506968689E-1,-1.083207458E1,6.923103333E-1,6.761174208E0,3.142382205E-1,1.848641783E-2,1.451428607E-2
6.764917208E0,-9.958790588E-1,-1.088506439E1,-1.376986542E0,6.771156333E0,-5.564222112E-2,-6.952420622E-2,1.760289073E-1
6.774899333E0,-1.228794708E0,-1.204724762E1,-3.631897430E0,6.781138333E0,-6.464948654E-1,-1.757784784E-1,3.329255879E-1
6.784881333E0,-9.699829102E-1,-1.370804398E1,-4.457730103E0,6.791120333E0,-1.200740933E0,-3.234097660E-1,3.543202579E-1
6.794863333E0,2.338137817E-1,-1.499806137E1,-3.206931152E0,6.801102333E0,-1.501816392E0,-4.217786789E-1,2.326372117E-1
6.804845333E0,1.703158264E0,-1.525103531E1,-9.427395630E-1,6.811084333E0,-1.527016997E0,-3.883072734E-1,-8.313751779E-3
6.814827333E0,2.528990936E0,-1.464823883E1,1.055155792E0,6.821067333E0,-1.435250044E0,-2.950439155E-1,-3.233726323E-1
6.824810333E0,2.769241333E0,-1.356628876E1,1.874851227E0,6.831049333E0,-1.454713941E0,-3.465444148E-1,-5.872182250E-1
6.834792333E0,2.472558289E0,-1.227252914E1,1.215472412E0,6.841031333E0,-1.707014084E0,-5.854735970E-1,-6.795175076E-1
6.844774333E0,1.604214020E0,-1.135254227E1,-1.190025330E-1,6.851013333E0,-2.199664116E0,-9.583967924E-1,-6.084787846E-1
6.854756333E0,5.780978394E-1,-1.109417953E1,-1.336869965E0,6.860995333E0,-2.835960627E0,-1.363655090E0,-4.772920310E-1
6.864738333E0,5.792953491E-2,-1.100047440E1,-1.736389160E0,6.870977333E0,-3.486533880E0,-1.753951907E0,-4.193728268E-1
6.874720333E0,1.317260742E-1,-1.088551346E1,-1.604363708E0,6.880959333E0,-3.985484362E0,-1.908765554E0,-4.610896409E-1
6.884702333E0,-7.978408813E-2,-1.096260315E1,-8.500822449E-1,6.890941333E0,-4.141479492E0,-1.763691783E0,-5.747052431E-1
6.894684333E0,-1.063837738E0,-1.113264954E1,8.274792480E-1,6.900923333E0,-3.954826832E0,-1.420403123E0,-6.575649977E-1
6.904666333E0,-2.713557129E0,-1.217328552E1,2.395169220E0,6.910905333E0,-3.613356352E0,-9.920504689E-1,-6.080428958E-1
6.914648333E0,-4.940176849E0,-1.439092392E1,2.849923553E0,6.920887333E0,-3.246917725E0,-5.193444490E-1,-5.130085349E-1
6.924630333E0,-6.731352081E0,-1.655796753E1,2.776426392E0,6.930870333E0,-2.898823738E0,4.937510565E-2,-4.506442249E-1
6.934613333E0,-7.662415924E0,-1.780367706E1,3.251388702E0,6.940852333E0,-2.623712778E0,6.938374639E-1,-4.465341568E-1
6.944595333E0,-7.628735962E0,-1.782208878E1,3.841012573E0,6.950834333E0,-2.412553310E0,1.297279239E0,-5.219146013E-1
6.954577333E0,-6.502328339E0,-1.598436035E1,4.237388306E0,6.960816333E0,-2.221158504E0,1.667076468E0,-5.960415602E-1
6.964559333E0,-5.104834442E0,-1.321796310E1,4.126918030E0,6.970798333E0,-2.040843964E0,1.733766437E0,-6.385868788E-1
6.974541333E0,-3.915108490E0,-1.115180969E1,3.677702179E0,6.980780333E0,-1.906608939E0,1.660725832E0,-6.254937053E-1
6.984523333E0,-2.965183868E0,-9.830058289E0,2.595303040E0,6.990762333E0,-1.825686574E0,1.641980290E0,-5.892794728E-1
6.994505333E0,-2.477498016E0,-8.988059235E0,1.130898285E0,7.000744333E0,-1.715998411E0,1.542530894E0,-5.930337310E-1
7.004487333E0,-1.412462769E0,-9.018446045E0,1.377136230E-1,7.010726333E0,-1.656325459E0,1.139576554E0,-6.182577014E-1
7.014469333E0,-5.369334412E-1,-9.305698700E0,-9.882449341E-1,7.020708333E0,-1.626046658E0,4.433850050E-1,-7.161842585E-1
7.024451333E0,2.245330811E-2,-9.460327148E0,-1.541045380E0,7.030690333E0,-1.600399256E0,-2.482937127E-1,-8.640822172E-1
7.034433333E0,9.886940002E-1,-9.742789764E0,-1.274898834E0,7.040672333E0,-1.595954537E0,-5.222347379E-1,-9.970354438E-1
7.044415333E0,1.984722748E0,-1.022837997E1,-1.090482330E0,7.050655333E0,-1.599171042E0,-4.079203308E-1,-1.119941354E0
7.054398333E0,2.711311798E0,-1.039333694E1,-1.215472412E0,7.060637333E0,-1.595266819E0,-3.417402506E-1,-1.193303227E0
7.064380333E0,2.732567596E0,-1.018062927E1,-1.011596375E0,7.070619333E0,-1.667486072E0,-6.474608183E-1,-1.186770916E0
7.074362333E0,2.712359619E0,-9.705517273E0,-1.093925171E0,7.080601333E0,-1.769197226E0,-1.022959232E0,-1.082879663E0
7.084344333E0,2.189197540E0,-9.119785309E0,-7.623646545E-1,7.090583333E0,-1.824898601E0,-1.306366682E0,-8.653560877E-1
7.094326333E0,1.138233032E0,-8.287516022E0,2.007325745E-1,7.100565333E0,-1.830346942E0,-1.573125362E0,-6.568838358E-1
7.104308333E0,2.607577515E-1,-7.216942291E0,8.988807678E-1,7.110547333E0,-1.785672784E0,-1.834352136E0,-5.188025236E-1
7.114290333E0,-6.750961304E-2,-5.987099762E0,1.275347900E0,7.120529333E0,-1.686858654E0,-2.075582981E0,-4.464659989E-1
7.124272333E0,-4.815486145E-1,-4.760999451E0,1.472038879E0,7.130511333E0,-1.492563725E0,-2.356483698E0,-4.583771527E-1
7.134254333E0,-4.644841003E-1,-4.020639038E0,1.635049896E0,7.140493333E0,-1.257834315E0,-2.468334913E0,-4.493397176E-1
7.144236333E0,-7.792794800E-1,-3.637286224E0,1.478774872E0,7.150475333E0,-1.008816481E0,-2.375313520E0,-4.173704386E-1
7.154218333E0,-1.146166534E0,-3.510499878E0,1.179696808E0,7.160458333E0,-7.552920580E-1,-2.079417467E0,-3.619785309E-1
7.164201333E0,-1.524429932E0,-3.493135986E0,9.433383179E-1,7.170440333E0,-5.119244456E-1,-1.650214672E0,-3.209723234E-1
7.174183333E0,-1.902393951E0,-3.686833191E0,7.686515808E-1,7.180422333E0,-3.078831732E-1,-1.339712977E0,-2.230982184E-1
7.184165333E0,-2.265838165E0,-3.619622955E0,3.306623840E-1,7.190404333E0,-1.028761566E-1,-1.047179818E0,-1.173359007E-1
7.194147333E0,-2.566113739E0,-3.739822998E0,2.056723022E-1,7.200386333E0,1.348066926E-1,-8.356124759E-1,-2.836954594E-2
7.204129333E0,-2.735711060E0,-3.542682953E0,2.779719543E-1,7.210368333E0,4.256564081E-1,-7.188391089E-1,3.569338471E-2
7.214111333E0,-2.826871490E0,-3.234623566E0,4.284091187E-1,7.220350333E0,7.377597094E-1,-7.285388708E-1,7.234114408E-2
7.224093333E0,-2.841241608E0,-2.827619934E0,5.373825073E-1,7.230332333E0,1.061146855E0,-7.523186803E-1,1.070495471E-1
7.234075333E0,-2.927462311E0,-2.470312958E0,6.352789307E-1,7.240314333E0,1.385048509E0,-8.430752158E-1,1.727414727E-1
7.244057333E0,-3.004402313E0,-2.446512451E0,5.718109131E-2,7.250296333E0,1.684533954E0,-1.001119852E0,2.540118992E-1
7.254039333E0,-3.051404572E0,-2.822979584E0,-8.952882385E-1,7.260278333E0,1.943260670E0,-1.163154483E0,3.067278266E-1
7.264021333E0,-2.873574371E0,-3.446582794E0,-2.052382050E0,7.270260333E0,2.129645109E0,-1.387285590E0,3.415294588E-1
7.274004333E0,-2.637964325E0,-4.300556946E0,-3.576213226E0,7.280243333E0,2.168979168E0,-1.566620469E0,3.694873154E-1
7.283986333E0,-2.564766541E0,-5.592819672E0,-5.689069519E0,7.290225333E0,2.044944286E0,-1.501762509E0,3.912298381E-1
7.293968333E0,-2.391876068E0,-7.461383972E0,-7.638465729E0,7.300207333E0,1.793752193E0,-1.219725609E0,4.328199029E-1
7.303950333E0,-1.994003448E0,-9.997110901E0,-8.625662842E0,7.310189333E0,1.079760671E0,-6.262409687E-1,5.303510427E-1
7.313932333E0,-1.307680664E0,-1.364592316E1,-1.267608994E1,7.320171333E0,-3.357837722E-2,1.785609424E-1,5.144013762E-1
7.323914333E0,4.140390015E-1,-1.866363876E1,-1.808853470E1,7.330153333E0,-8.942452669E-1,3.036895096E-1,2.830713987E-1
7.333896333E0,2.415227509E0,-2.427516953E1,-1.817655167E1,7.340135333E0,-1.429300427E0,-3.074111342E-1,-1.776384413E-1
7.343878333E0,3.522924042E0,-2.692705490E1,-1.546209641E1,7.350117333E0,-1.631410360E0,-9.462393522E-1,-7.625678778E-1
7.353860333E0,3.523073730E0,-2.471405685E1,-1.305195831E1,7.360099333E0,-1.404080033E0,-1.238637686E0,-1.212177157E0
7.363842333E0,2.309696960E0,-1.862172592E1,-9.571994934E0,7.370081333E0,-8.551731706E-1,-1.242600203E0,-1.431939602E0
7.373824333E0,8.996292114E-1,-1.172945847E1,-6.486910400E0,7.380063333E0,-1.967020631E-1,-1.085795164E0,-1.417174816E0
7.383807333E0,-4.578977966E-1,-7.089257813E0,-4.831652527E0,7.390046333E0,3.714864254E-1,-6.739235520E-1,-1.144086838E0
7.393789333E0,-2.228415985E0,-5.159620514E0,-4.405638428E0,7.400028333E0,5.895686746E-1,-4.191594720E-1,-5.139570832E-1
7.403771333E0,-4.343367920E0,-5.984555054E0,-4.438569946E0,7.410010333E0,6.161727905E-1,3.577008098E-2,1.468540877E-1
7.413753333E0,-6.089037781E0,-8.788374481E0,-3.450923767E0,7.419992333E0,5.593726635E-1,7.113791704E-1,6.210173965E-1
7.423735333E0,-6.430777130E0,-1.132350266E1,-7.976911926E-1,7.429974333E0,4.493249655E-1,1.637784362E0,8.351500630E-1
7.433717333E0,-6.004613342E0,-1.297217422E1,2.522404633E0,7.439956333E0,4.450671077E-1,2.025141716E0,7.132883072E-1
7.443699333E0,-4.559368744E0,-1.313862808E1,6.894812164E0,7.449938333E0,6.406668425E-1,1.648442149E0,3.384441137E-1
7.453681333E0,-3.406765594E0,-1.202045334E1,9.146429901E0,7.459920333E0,7.043907046E-1,9.190769792E-1,-3.137709340E-3
7.463663333E0,-3.799848175E0,-1.135748199E1,5.873036957E0,7.469902333E0,2.140532732E-1,1.482798755E-1,-2.067625821E-1
7.473645333E0,-4.145180054E0,-1.117770584E1,-1.999242554E0,7.479884333E0,-3.513531089E-1,-7.053183913E-1,-2.450844049E-1
7.483627333E0,-3.904330902E0,-1.021954834E1,-6.862928467E0,7.489866333E0,-4.985806644E-1,-1.129657388E0,1.676567644E-2
7.493609333E0,-4.827461243E0,-8.769064636E0,-5.305567017E0,7.499848333E0,-2.847357690E-1,-8.225240707E-1,4.232687354E-1
7.503592333E0,-5.860014038E0,-6.603517914E0,-2.790497131E0,7.509831333E0,3.521343470E-1,2.225400358E-1,7.544721961E-1
7.513574333E0,-5.382357330E0,-4.421954498E0,2.585124207E-1,7.519813333E0,1.296185851E0,1.502471209E0,9.036398530E-1
7.523556333E0,-3.142864380E0,-3.205883331E0,4.357738037E0,7.529795333E0,2.226597309E0,2.671685934E0,8.466178775E-1
7.533538333E0,-6.218069458E-1,-2.918780365E0,6.835086365E0,7.539777333E0,2.772195816E0,3.349340916E0,7.853531837E-1
7.543520333E0,5.995033264E-1,-3.939058685E0,7.478598175E0,7.549759333E0,2.834906101E0,3.374058008E0,8.594031930E-1
7.553502333E0,1.567240906E-1,-6.504274292E0,7.068900146E0,7.559741333E0,2.478219032E0,2.783469439E0,9.496923685E-1
7.563484333E0,-6.890171814E-1,-9.443562012E0,6.576274567E0,7.569723333E0,1.909884095E0,1.807533145E0,9.370477200E-1
7.573466333E0,-1.252295837E0,-1.225411743E1,5.385949860E0,7.579705333E0,1.562554002E0,8.425535560E-1,8.618049026E-1
7.583448333E0,-1.334774323E0,-1.448777252E1,4.379442902E0,7.589687333E0,1.561034918E0,5.336105824E-2,7.510135174E-1
7.593430333E0,-4.219725037E-1,-1.615335892E1,2.047442322E0,7.599669333E0,1.501285076E0,-2.676840723E-1,4.833873510E-1
7.603412333E0,2.363734589E0,-1.723381210E1,-2.863694916E0,7.609651333E0,1.377741337E0,-2.271556854E-1,2.139177322E-1
7.613394333E0,4.631219330E0,-1.661140640E1,-5.330415344E0,7.619634333E0,1.289205074E0,-1.390601844E-1,4.775436129E-3
7.623377333E0,4.937332764E0,-1.423015823E1,-4.374952240E0,7.629616333E0,1.256291389E0,7.899207994E-3,-1.774990708E-1
7.633359333E0,3.881727905E0,-1.180115936E1,-2.525248718E0,7.639598333E0,1.269924283E0,2.312896848E-1,-3.371782005E-1
7.643341333E0,1.877246246E0,-1.022314087E1,-9.575587463E-1,7.649580333E0,1.300949454E0,4.150011539E-1,-4.736011326E-1
7.653323333E0,-4.041595459E-2,-9.080566864E0,-2.019300842E-1,7.659562333E0,1.339168191E0,4.606682360E-1,-5.743693113E-1
7.663305333E0,-1.491199036E0,-8.139773254E0,-3.802093506E-2,7.669544333E0,1.413793445E0,4.119444191E-1,-5.859745741E-1
7.673287333E0,-2.767295380E0,-7.401957550E0,8.307723999E-2,7.679526333E0,1.533717513E0,3.378403783E-1,-5.056344271E-1
7.683269333E0,-3.537144470E0,-6.857539673E0,3.709286499E-1,7.689508333E0,1.627483249E0,2.928384840E-1,-3.379223943E-1
7.693251333E0,-3.878734131E0,-6.512058105E0,4.288581848E-1,7.699490333E0,1.649463892E0,3.323754966E-1,-1.178619266E-1
7.703233333E0,-3.982318726E0,-6.624025269E0,1.478924561E-1,7.709472333E0,1.591935992E0,4.370335639E-1,6.120206416E-2
7.713215333E0,-3.475173340E0,-7.008575592E0,-1.933978271E-1,7.719454333E0,1.472557664E0,5.590572357E-1,2.048079669E-1
7.723197333E0,-2.671494598E0,-7.678282928E0,-2.815644836E-1,7.729436333E0,1.337980390E0,7.325426340E-1,3.020573258E-1
7.733180333E0,-1.805245972E0,-8.431815948E0,-1.532812500E-1,7.739419333E0,1.279792905E0,8.454644084E-1,3.289935887E-1
7.743162333E0,-6.885681152E-1,-8.897347870E0,2.609074402E-1,7.749401333E0,1.313978314E0,7.626244426E-1,2.625867128E-1
7.753144333E0,2.630030823E-1,-9.131760406E0,7.979905701E-1,7.759383333E0,1.376485586E0,6.883651018E-1,1.825728416E-1
7.763126333E0,8.141569519E-1,-9.217681732E0,9.981243896E-1,7.769364833E0,1.420172572E0,8.143922091E-1,1.597623676E-1
7.773107833E0,8.854087830E-1,-9.001082153E0,9.839039612E-1,7.779346833E0,1.379267812E0,8.867566586E-1,1.568653882E-1
7.783089833E0,8.032296753E-1,-8.669821014E0,7.503895569E-1,7.789328833E0,1.259234428E0,8.275682330E-1,1.866129935E-1
7.793071833E0,6.798861694E-1,-8.314310303E0,3.186872864E-1,7.799310833E0,1.075634599E0,6.929718256E-1,2.319088429E-1
7.803053833E0,2.014810181E-1,-8.301586761E0,5.164260864E-2,7.809292833E0,9.268046618E-1,6.389541626E-1,2.988973260E-1
7.813035833E0,-2.249821472E-1,-8.261470184E0,3.742218018E-2,7.819274833E0,8.939758539E-1,6.661977768E-1,4.015219510E-1
7.823017833E0,-6.855743408E-1,-8.173602905E0,3.387455750E-1,7.829256833E0,9.225334525E-1,5.866770744E-1,4.142239094E-1
7.832999833E0,-6.653663635E-1,-8.227341156E0,4.676275635E-1,7.839238833E0,1.068551660E0,4.292286038E-1,4.166034460E-1
7.842981833E0,-7.006929016E-1,-8.185428314E0,8.657995605E-1,7.849221833E0,1.303888202E0,3.087282479E-1,4.412864447E-1
7.852964833E0,-9.916877747E-1,-8.418194275E0,1.399290161E0,7.859203833E0,1.563229442E0,2.498047352E-1,4.717713594E-1
7.862946833E0,-1.084195404E0,-8.739426270E0,1.673519897E0,7.869185833E0,1.792151570E0,2.413251549E-1,5.077198148E-1
7.872928833E0,-1.000818787E0,-9.041348419E0,1.622925110E0,7.879167833E0,1.950566769E0,2.226052582E-1,5.532652140E-1
7.882910833E0,-8.376580811E-1,-9.217532043E0,1.313069458E0,7.889149833E0,1.987210155E0,1.881919205E-1,5.654129386E-1
7.892892833E0,-4.650828552E-1,-9.344318390E0,6.143225098E-1,7.899131833E0,1.940033555E0,1.196317747E-1,6.107851863E-1
7.902874833E0,-2.303709412E-1,-9.287436676E0,-2.983296204E-1,7.909113833E0,1.825525999E0,7.967416942E-2,7.098227739E-1
7.912856833E0,5.134323120E-2,-9.517208862E0,-1.247356110E0,7.919095833E0,1.622578502E0,7.298137993E-2,7.723188996E-1
7.922838833E0,6.953041077E-1,-1.019814285E1,-2.305056610E0,7.929077833E0,1.336317062E0,7.958413661E-2,7.432290912E-1
7.932820833E0,1.369352417E0,-1.119521942E1,-3.308120728E0,7.939059833E0,9.977892637E-1,5.245184898E-2,6.111443043E-1
7.942802833E0,1.904040527E0,-1.237880814E1,-3.977378998E0,7.949041833E0,6.509469151E-1,-5.069660023E-3,4.211834669E-1
7.952784833E0,2.177072754E0,-1.346270416E1,-4.173770599E0,7.959023833E0,3.400105834E-1,1.115138736E-2,2.473804802E-1
7.962767833E0,2.166444855E0,-1.396505951E1,-3.846551056E0,7.969006833E0,7.602205127E-2,1.527916491E-1,1.191185266E-1
7.972749833E0,1.820065155E0,-1.348815125E1,-3.141666870E0,7.978988833E0,-1.627234071E-1,3.777882755E-1,1.727178693E-2
7.982731833E0,1.420246582E0,-1.268896317E1,-2.462678833E0,7.988970833E0,-3.493275940E-1,5.907472372E-1,-1.987094432E-2
7.992713833E0,7.843688965E-1,-1.191252777E1,-1.516346741E0,7.998952833E0,-5.175751448E-1,6.336765885E-1,-4.287692904E-2
8.002695833E0,1.549278259E-1,-1.151914581E1,-6.599775696E-1,8.008934833E0,-6.277332306E-1,5.428928733E-1,-7.078858092E-3
8.012677833E0,-4.198768616E-1,-1.135403915E1,1.377136230E-2,8.018916833E0,-7.167019844E-1,2.812889814E-1,1.640863717E-3
8.022659833E0,-5.571414185E-1,-1.170835236E1,2.613565063E-1,8.028898833E0,-7.888657451E-1,-8.993402869E-2,-2.536935359E-2
8.032641833E0,-4.595443726E-1,-1.236713242E1,3.558100891E-1,8.038880833E0,-8.759849072E-1,-5.108112097E-1,-1.165131107E-1
8.042623833E0,-9.355545044E-2,-1.312800018E1,1.848655701E-1,8.048862833E0,-1.006867766E0,-9.006342292E-1,-2.699176371E-1
8.052605833E0,1.624122620E-1,-1.353245911E1,-3.637435913E-2,8.058844833E0,-1.193307161E0,-1.104278922E0,-4.147512615E-1
8.062587833E0,2.650987244E-1,-1.389440643E1,-4.236190796E-2,8.068826833E0,-1.444102049E0,-1.057130218E0,-5.274690986E-1
8.072569833E0,4.942721558E-1,-1.447864151E1,-2.297721863E-1,8.078809833E0,-1.794323444E0,-8.530237079E-1,-6.598401666E-1
8.082552833E0,1.236279144E0,-1.486813156E1,-7.899073792E-1,8.088791833E0,-2.182320595E0,-6.922459006E-1,-7.930093408E-1
8.092534833E0,1.957030334E0,-1.504177048E1,-1.034049683E0,8.098773833E0,-2.565622330E0,-6.087136865E-1,-8.536028862E-1
8.102516833E0,1.850901031E0,-1.489268051E1,-8.337661743E-1,8.108755833E0,-2.917842150E0,-5.831618905E-1,-8.224436045E-1
8.112498833E0,8.930429077E-1,-1.394380371E1,-4.520599365E-1,8.118737833E0,-3.226313114E0,-6.000609994E-1,-7.767989039E-1
8.122480833E0,-2.034269714E-1,-1.240799744E1,1.773811340E-1,8.128719833E0,-3.441324234E0,-6.940957904E-1,-7.219341993E-1
8.132462833E0,-1.473535767E0,-1.117890335E1,8.669970703E-1,8.138701833E0,-3.508459806E0,-8.572820425E-1,-6.515596509E-1
8.142444833E0,-3.106040955E0,-1.051443512E1,1.707349548E0,8.148683833E0,-3.443368673E0,-1.031464458E0,-5.727714896E-1
8.152426833E0,-4.787045288E0,-1.052162018E1,2.140399017E0,8.158665833E0,-3.353741407E0,-1.213354945E0,-4.733815193E-1
8.162408833E0,-6.844067688E0,-1.174023605E1,1.336720276E0,8.168647833E0,-3.289355040E0,-1.132959485E0,-3.233555257E-1
8.172390833E0,-8.844058685E0,-1.360999786E1,7.217990112E-1,8.178629833E0,-3.182399750E0,-6.663573980E-1,-1.542421430E-1
8.182372833E0,-9.923164673E0,-1.529474442E1,1.135239258E0,8.188611833E0,-2.969624043E0,1.945490390E-1,3.083356889E-3
8.192355833E0,-9.528884583E0,-1.604947495E1,2.136656799E0,8.198594833E0,-2.708194494E0,1.125711560E0,8.810610324E-2
8.202337833E0,-7.435936890E0,-1.504581207E1,2.733615417E0,8.208576833E0,-2.498072624E0,1.708558202E0,8.937522769E-2
8.212319833E0,-4.819677429E0,-1.326780945E1,2.692001953E0,8.218558833E0,-2.337021589E0,1.916662693E0,5.820558965E-2
8.222301833E0,-2.877017212E0,-1.169832321E1,2.693049774E0,8.228540833E0,-2.216687679E0,1.834702730E0,5.096913874E-2
8.232283833E0,-1.645228729E0,-1.067639832E1,2.487527161E0,8.238522833E0,-2.175261021E0,1.516458511E0,1.065101102E-2
8.242265833E0,-2.490820312E-1,-1.026505371E1,1.790127411E0,8.248504833E0,-2.181447744E0,1.135558009E0,-7.598516345E-2
8.252247833E0,9.015751648E-1,-1.044003983E1,7.752378845E-1,8.258486833E0,-2.176420689E0,5.226351619E-1,-1.672761887E-1
8.262229833E0,1.299298096E0,-1.083940933E1,-1.460961914E-1,8.268468833E0,-2.118341208E0,-1.030010208E-1,-3.397817910E-1
8.272211833E0,1.534908142E0,-1.095661560E1,-5.131329346E-1,8.278450833E0,-2.011830568E0,-4.281388819E-1,-4.990241826E-1
8.282193833E0,1.027912445E0,-1.069196594E1,-4.445755005E-1,8.288432833E0,-1.866958380E0,-4.972725511E-1,-6.597518921E-1
8.292175833E0,9.059161377E-1,-1.040052200E1,-2.315684509E-1,8.298414833E0,-1.680220723E0,-3.164268732E-1,-7.722038627E-1
8.302157833E0,8.023315430E-1,-1.006342300E1,-8.427474976E-2,8.308396833E0,-1.483103037E0,-1.207943559E-1,-8.338022828E-1
8.312140833E0,5.354365540E-1,-9.599387970E0,-3.083587646E-2,8.318379833E0,-1.375260115E0,-1.099965647E-1,-8.468618989E-1
8.322122833E0,4.960684204E-1,-9.031918030E0,-4.333488464E-1,8.328361833E0,-1.371408105E0,-3.100376427E-1,-8.689591289E-1
8.332104833E0,9.470805359E-1,-8.349936218E0,-9.877958679E-1,8.338343833E0,-1.381406069E0,-4.952160418E-1,-8.635843396E-1
8.342086833E0,1.167422333E0,-7.629634094E0,-6.002517700E-1,8.348325833E0,-1.374708533E0,-7.251805663E-1,-8.123975992E-1
8.352068833E0,1.077609100E0,-7.106921082E0,-1.038839722E-1,8.358307833E0,-1.324184895E0,-8.932987452E-1,-7.336146235E-1
8.362050833E0,7.092251587E-1,-6.520889740E0,3.844006348E-1,8.368289833E0,-1.281853437E0,-1.170540571E0,-6.988207102E-1
8.372032833E0,4.956193542E-1,-5.784570923E0,6.804849243E-1,8.378271833E0,-1.241529703E0,-1.508494377E0,-6.508827209E-1
8.382014833E0,7.469467163E-2,-4.883594513E0,8.448431396E-1,8.388253833E0,-1.144464016E0,-1.837291837E0,-6.056224704E-1
8.391996833E0,-4.812492371E-1,-4.283342743E0,1.144220581E0,8.398235833E0,-9.643932581E-1,-2.034670115E0,-5.857778788E-1
8.401978833E0,-7.759863281E-1,-3.838318176E0,1.340462494E0,8.408217833E0,-6.980460286E-1,-1.976936698E0,-5.522421002E-1
8.411960833E0,-1.273102570E0,-3.203039246E0,1.343306580E0,8.418199833E0,-3.760858774E-1,-1.760964274E0,-5.079409480E-1
8.421942833E0,-1.797312469E0,-2.958298187E0,1.162931671E0,8.428182833E0,-8.391423523E-2,-1.609499097E0,-4.521844089E-1
8.431925833E0,-2.171384583E0,-2.684218140E0,4.935237122E-1,8.438164833E0,2.079964429E-1,-1.318273664E0,-3.449327946E-1
8.441907833E0,-2.646646271E0,-2.698887634E0,1.270857239E-1,8.448146833E0,5.417326093E-1,-9.950690866E-1,-2.464978248E-1
8.451889833E0,-2.831661530E0,-2.861449585E0,-7.334747314E-3,8.458128833E0,8.777335286E-1,-7.355431914E-1,-1.765493751E-1
8.461871833E0,-2.718646545E0,-3.083737335E0,-3.598516846E-1,8.468110833E0,1.198658466E0,-5.533502102E-1,-1.154310256E-1
8.471853833E0,-2.631378021E0,-3.454516296E0,-7.351213074E-1,8.478092833E0,1.502537966E0,-4.298549294E-1,-4.229156673E-2
8.481835833E0,-2.556234283E0,-3.782633972E0,-8.752299500E-1,8.488074833E0,1.778305888E0,-3.271157742E-1,3.431532532E-2
8.491817833E0,-2.467917938E0,-3.930227051E0,-1.128652954E0,8.498056833E0,2.018378496E0,-2.852522135E-1,1.085687876E-1
8.501799833E0,-2.386786652E0,-4.114344177E0,-1.784738617E0,8.508038833E0,2.204501867E0,-3.100600839E-1,1.819431335E-1
8.511781833E0,-2.299967194E0,-4.591551819E0,-2.827769623E0,8.518020833E0,2.316219330E0,-3.454351127E-1,2.238000333E-1
8.521763833E0,-2.115850067E0,-5.317991180E0,-4.009861450E0,8.528002833E0,2.355800867E0,-4.282607436E-1,2.541158497E-1
8.531745833E0,-2.034868469E0,-6.387217712E0,-5.183271332E0,8.537984833E0,2.342232227E0,-4.513993561E-1,2.920536399E-1
8.541727833E0,-2.210153961E0,-7.885152740E0,-6.105054474E0,8.547966833E0,2.255064726E0,-3.003112078E-1,3.222098947E-1
8.551710833E0,-2.653831329E0,-1.002225861E1,-6.838678894E0,8.557949833E0,1.913939238E0,7.406639308E-2,3.530522287E-1
8.561692833E0,-3.251538391E0,-1.311961761E1,-8.808732147E0,8.567931833E0,1.174358487E0,6.481448412E-1,4.199054241E-1
8.571674833E0,-4.021686859E0,-1.762285309E1,-1.242386444E1,8.577913833E0,9.035918117E-2,1.008988261E0,4.036169946E-1
8.581656833E0,-4.039948883E0,-2.285297699E1,-1.567645065E1,8.587895833E0,-1.099258304E0,5.819334984E-1,1.034872085E-1
8.591638833E0,-2.039059753E0,-2.625495255E1,-1.715447708E1,8.597877833E0,-2.119905472E0,-6.259860396E-1,-4.311642051E-1
8.601620833E0,1.595083008E0,-2.516970932E1,-1.698158661E1,8.607859833E0,-2.461209297E0,-1.694751740E0,-9.540283680E-1
8.611602833E0,4.114044800E0,-2.083966370E1,-1.366837646E1,8.617841833E0,-2.187328339E0,-1.996369123E0,-1.236592650E0
8.621584833E0,4.338877258E0,-1.492321701E1,-9.201066284E0,8.627823833E0,-1.706839323E0,-1.577074289E0,-1.204396486E0
8.631566833E0,3.357218628E0,-9.685908051E0,-6.465355225E0,8.637805833E0,-1.181182742E0,-1.026306748E0,-9.857726097E-1
8.641548833E0,2.771187286E0,-5.056634674E0,-4.066144409E0,8.647787833E0,-6.180062890E-1,-6.034616232E-1,-7.241063118E-1
8.651530833E0,2.532284088E0,-1.081201630E0,-2.014061737E0,8.657769833E0,1.069255993E-1,-3.017321527E-1,-4.576522708E-1
8.661512833E0,1.967658234E0,1.463356934E0,-8.741821289E-2,8.667751833E0,9.372194409E-1,1.250567138E-1,-2.426206619E-1
8.671495833E0,8.530760193E-1,1.580862579E0,1.577120361E0,8.677734833E0,1.757515669E0,6.913970709E-1,-1.497327983E-1
8.681477833E0,4.408332825E-1,-5.426216125E-1,3.122506714E0,8.687716833E0,2.514626980E0,1.174151421E0,-1.134180352E-1
8.691459833E0,8.487350464E-1,-3.638932800E0,5.475164337E0,8.697698833E0,3.184230089E0,1.695502520E0,-5.362767354E-2
8.701441833E0,2.450404358E-1,-7.901319122E0,8.197852478E0,8.707680833E0,3.684799433E0,2.084797621E0,1.438664198E-1
8.711423833E0,-1.399439850E0,-1.307471100E1,1.075663147E1,8.717662833E0,3.630592346E0,2.323662996E0,2.678392231E-1
8.721405833E0,-2.818339233E0,-1.808524155E1,1.000743942E1,8.727644833E0,2.260798454E0,2.160547018E0,6.647191942E-2
8.731387833E0,-3.600462799E0,-2.309008392E1,3.353027344E-1,8.737626833E0,-4.235612154E-1,5.578638911E-1,-2.498391867E-1
8.741369833E0,-3.657344513E0,-2.754646683E1,-1.784933212E1,8.747608833E0,-2.025066137E0,-8.358204961E-1,-3.221510649E-1
8.751351833E0,-2.190844116E0,-2.453577759E1,-1.955024506E1,8.757590833E0,-2.121731520E0,-1.382102489E0,-2.749438882E-1
8.761333833E0,-1.557960205E0,-1.706152039E1,-8.588540039E0,8.767572833E0,-1.185213447E0,-1.254448891E0,-2.089377195E-1
8.771316333E0,-2.919229431E0,-1.115375565E1,9.714797974E-2,8.777555333E0,5.853180587E-2,-5.509250760E-1,-1.282388717E-1
8.781298333E0,-4.458777924E0,-5.385051727E0,6.462361450E0,8.787537333E0,1.191581726E0,9.590996057E-2,-1.004729420E-1
8.791281333E0,-5.331912231E0,-4.138893127E-1,8.461154938E0,8.797520333E0,1.993737578E0,2.780430019E-1,1.388000995E-1
8.801263333E0,-5.573958893E0,1.886526947E0,7.618108063E0,8.807502333E0,2.282204151E0,7.200497389E-1,5.159492493E-1
8.811245333E0,-6.260880432E0,1.374441833E0,5.070855103E0,8.817484333E0,2.187088490E0,1.427233219E0,9.121077657E-1
8.821227333E0,-5.916446686E0,-3.980223083E-1,3.474125519E0,8.827466333E0,1.862330556E0,1.822125196E0,1.266123056E0
8.831209333E0,-4.632117462E0,-2.234253845E0,3.377875671E0,8.837448333E0,1.391979098E0,1.702744484E0,1.455185890E0
8.841191333E0,-2.736758881E0,-5.140610046E0,4.329446869E0,8.847430333E0,9.620169997E-1,1.130572677E0,1.489436030E0
8.851173333E0,-1.018482056E0,-9.300609283E0,5.503605194E0,8.857412333E0,7.838776112E-1,3.766261339E-1,1.511596560E0
8.861155333E0,4.715194702E-2,-1.350701202E1,6.540948029E0,8.867394333E0,8.679389358E-1,-3.425999582E-1,1.459041357E0
8.871137333E0,1.398691406E0,-1.669972275E1,6.296206970E0,8.877376333E0,1.307990432E0,-1.040375829E0,1.323398232E0
8.881119333E0,3.028053131E0,-1.845452362E1,4.798571320E0,8.887358333E0,1.937286973E0,-1.454107165E0,9.732762575E-1
8.891101333E0,4.865033112E0,-1.892394745E1,2.174228668E0,8.897340333E0,2.199625492E0,-1.297795415E0,2.084694058E-1
8.901083333E0,7.392976227E0,-1.711361206E1,-1.513053589E0,8.907323333E0,1.934314132E0,-7.181591988E-1,-6.492300034E-1
8.911066333E0,8.238418121E0,-1.380683853E1,-4.587659912E0,8.917305333E0,1.484143019E0,-7.247071713E-2,-1.049893260E0
8.921048333E0,5.055886230E0,-1.120195541E1,-4.983287201E0,8.927287333E0,1.203337789E0,5.304799676E-1,-1.141402721E0
8.931030333E0,1.037492523E0,-9.876611481E0,-2.942281494E0,8.937269333E0,1.099081159E0,9.345531464E-1,-1.226725101E0
8.941012333E0,-1.652413788E0,-8.573720856E0,-1.258433075E0,8.947251333E0,1.160455465E0,1.023199081E0,-1.201130748E0
8.950994333E0,-3.844455414E0,-7.456144867E0,-4.194277954E-1,8.957233333E0,1.290207148E0,8.863267899E-1,-9.893585443E-1
8.960976333E0,-5.790708160E0,-6.506669312E0,3.397933960E-1,8.967215333E0,1.350778937E0,6.691032052E-1,-5.928403139E-1
8.970958333E0,-7.382198639E0,-6.020779724E0,3.228785706E-1,8.977197333E0,1.218667507E0,3.090419173E-1,-1.356139034E-1
8.980940333E0,-8.069718933E0,-5.861660614E0,-2.965333557E-1,8.987179333E0,9.792254567E-1,-2.931247279E-2,2.398794740E-1
8.990922333E0,-7.242089996E0,-6.021827545E0,-2.749781799E-1,8.997161333E0,7.721521854E-1,-1.407708228E-1,5.076126456E-1
9.000904333E0,-5.383854218E0,-6.600823517E0,3.143463135E-1,9.007143333E0,6.424841881E-1,-1.881661639E-2,6.491328478E-1
9.010886333E0,-3.163820801E0,-7.594457245E0,8.360115051E-1,9.017126333E0,5.894929171E-1,2.163935006E-1,7.253016233E-1
9.020869333E0,-1.415606232E0,-8.553063812E0,1.323697357E0,9.027108333E0,5.940266252E-1,4.924404919E-1,7.545957565E-1
9.030851333E0,-3.861968994E-1,-9.323811035E0,1.464853821E0,9.037090333E0,6.794887781E-1,5.694947839E-1,7.104848027E-1
9.040833333E0,9.382489014E-1,-9.813592529E0,1.701811066E0,9.047072333E0,7.389817238E-1,6.135995388E-1,6.362333298E-1
9.050815333E0,1.869462433E0,-1.009081604E1,1.427431641E0,9.057054333E0,7.726422548E-1,6.692169905E-1,4.562412500E-1
9.060797333E0,2.579885101E0,-1.004965164E1,1.033001862E0,9.067036333E0,8.497389555E-1,7.642449141E-1,2.676829398E-1
9.070779333E0,2.748434601E0,-9.845775604E0,1.179247742E0,9.077018333E0,9.508954287E-1,8.188484907E-1,1.773463935E-1
9.080761333E0,2.194736023E0,-9.508377228E0,1.589394836E0,9.087000333E0,1.040228367E0,8.043387532E-1,1.254654974E-1
9.090743333E0,1.556912384E0,-9.013805695E0,1.684896240E0,9.096982333E0,1.164391279E0,7.725233436E-1,9.268146753E-2
9.100725333E0,7.406597900E-1,-8.489595795E0,1.940115509E0,9.106964333E0,1.338796258E0,6.482766271E-1,6.911254674E-2
9.110707333E0,-1.011895752E-1,-8.051905975E0,2.144739990E0,9.116946333E0,1.538755178E0,4.433397055E-1,6.209326163E-2
9.120690333E0,-9.918374634E-1,-7.624245300E0,1.924847260E0,9.126929333E0,1.739216566E0,2.234609127E-1,1.045742482E-1
9.130672333E0,-1.924398193E0,-7.471263428E0,1.485810242E0,9.136911333E0,1.866208911E0,7.499588653E-3,1.627350152E-1
9.140654333E0,-2.610870667E0,-7.791746979E0,7.499404907E-1,9.146893333E0,1.883631945E0,-1.289496571E-1,2.430294901E-1
9.150636333E0,-2.955753479E0,-8.281378784E0,-1.466949463E-2,9.156875333E0,1.751930594E0,-1.453419477E-1,3.730881214E-1
9.160618333E0,-3.089425507E0,-8.983119507E0,-7.453001404E-1,9.166857333E0,1.464084744E0,-5.390743539E-2,5.350698829E-1
9.170600333E0,-2.597997437E0,-9.767638092E0,-1.338217163E0,9.176839333E0,1.084376097E0,4.767831042E-2,6.747273803E-1
9.180582333E0,-1.553918610E0,-1.072714279E1,-1.750759277E0,9.186821333E0,7.501765490E-1,1.125844792E-1,7.224205732E-1
9.190564333E0,-2.612068176E-1,-1.165820663E1,-1.720522156E0,9.196803333E0,6.017338037E-1,1.436270922E-1,6.482496262E-1
9.200546333E0,7.551795959E-1,-1.229558121E1,-1.263971558E0,9.206785333E0,6.061352491E-1,2.145012617E-1,4.892613292E-1
9.210528333E0,1.321302338E0,-1.235156479E1,-7.457492065E-1,9.216767333E0,5.737197995E-1,3.454068005E-1,3.219066858E-1
9.220511333E0,1.707349548E0,-1.197509766E1,-5.298980713E-1,9.226750333E0,4.104479551E-1,5.019330978E-1,2.463750243E-1
9.230493333E0,1.739832001E0,-1.151375702E1,-4.905299377E-1,9.236732333E0,1.605843157E-1,5.688204765E-1,2.294365168E-1
9.240475333E0,1.547032928E0,-1.129820526E1,-4.171824646E-1,9.246714333E0,-4.080996290E-2,4.955042899E-1,2.158289105E-1
9.250457333E0,1.310225372E0,-1.144579834E1,-2.532733154E-1,9.256696333E0,-8.757960051E-2,3.502536416E-1,2.051946521E-1
9.260439333E0,1.050964508E0,-1.161180313E1,-8.981323242E-3,9.266678333E0,-5.456796288E-2,2.203470916E-1,1.161900461E-1
9.270421333E0,1.184636536E0,-1.184037781E1,-1.336720276E-1,9.276660333E0,2.145702764E-2,2.136332542E-1,2.720078453E-2
9.280403333E0,1.284927979E0,-1.161689255E1,-2.933898926E-1,9.286642333E0,-1.530773565E-2,2.286310047E-1,-6.752900034E-2
9.290385333E0,1.554217987E0,-1.146106659E1,-8.382568359E-1,9.296624333E0,-2.082545459E-1,2.516044974E-1,-1.273252219E-1
9.300367333E0,1.616338806E0,-1.153561157E1,-1.490151215E0,9.306606333E0,-5.008818507E-1,2.613126040E-1,-1.643072516E-1
9.310349333E0,1.637893982E0,-1.230261658E1,-1.773961029E0,9.316588333E0,-8.164185286E-1,1.830074191E-1,-2.523795962E-1
9.320332333E0,1.824256439E0,-1.354952362E1,-1.759291534E0,9.326571333E0,-1.018287301E0,9.289060533E-2,-3.494209349E-1
9.330314333E0,1.608105927E0,-1.399245255E1,-1.204545135E0,9.336553333E0,-1.165221572E0,4.692257941E-2,-4.500644505E-1
9.340296333E0,1.037492523E0,-1.362781082E1,-8.973838806E-1,9.346535333E0,-1.384553075E0,-8.882486075E-2,-5.156366229E-1
9.350278333E0,6.023474121E-1,-1.304806641E1,-1.296154633E0,9.356517333E0,-1.742258906E0,-3.918081820E-1,-4.835953712E-1
9.360260333E0,4.357438660E-1,-1.267339554E1,-1.907782745E0,9.366499333E0,-2.222709894E0,-8.095303774E-1,-3.753137290E-1
9.370242333E0,5.345384216E-1,-1.261307098E1,-2.246678009E0,9.376481333E0,-2.732355833E0,-1.256262422E0,-2.915192246E-1
9.380224333E0,9.840536499E-1,-1.272982819E1,-1.985471191E0,9.386463333E0,-3.184266090E0,-1.624093890E0,-2.567006648E-1
9.390206333E0,1.570384369E0,-1.273401947E1,-1.043031006E0,9.396445333E0,-3.502073526E0,-1.896623135E0,-2.171141356E-1
9.400188333E0,1.432371368E0,-1.254032227E1,2.163002014E-1,9.406427333E0,-3.649182320E0,-2.007027864E0,-1.858885288E-1
9.410170333E0,3.603007507E-1,-1.236324051E1,1.269959106E0,9.416409333E0,-3.633212805E0,-1.863630891E0,-2.498794943E-1
9.420153333E0,-1.182540894E0,-1.235545670E1,1.946402435E0,9.426392333E0,-3.479529142E0,-1.488713026E0,-3.779636621E-1
9.430135333E0,-2.929258575E0,-1.278715897E1,2.228865051E0,9.436374333E0,-3.234178782E0,-1.003611803E0,-4.732108116E-1
9.440117333E0,-4.906496887E0,-1.365819763E1,2.325264587E0,9.446356333E0,-2.957835913E0,-5.718616843E-1,-4.420059025E-1
9.450099333E0,-6.920558624E0,-1.451277054E1,2.540067902E0,9.456338333E0,-2.731211662E0,-1.784683466E-1,-2.923527658E-1
9.460081333E0,-8.487350464E0,-1.499237320E1,2.811902618E0,9.466320333E0,-2.577998638E0,1.521592587E-1,-1.177785099E-1
9.470063333E0,-8.994795227E0,-1.497081802E1,2.956801300E0,9.476302333E0,-2.497400522E0,3.358526528E-1,8.122432977E-3
9.480045333E0,-8.324189758E0,-1.397553772E1,2.840792542E0,9.486284333E0,-2.415960073E0,4.453052878E-1,6.894160062E-2
9.490027333E0,-6.801107025E0,-1.238913666E1,2.894231415E0,9.496266333E0,-2.265095711E0,5.734187365E-1,6.260487437E-2
9.500009333E0,-5.166057129E0,-1.115719849E1,3.129242706E0,9.506248333E0,-2.078168869E0,7.383869886E-1,7.851224393E-3
9.509991333E0,-3.864064636E0,-1.045919998E1,2.849474487E0,9.516230333E0,-1.865200520E0,9.916037917E-1,-1.164233238E-1
9.519974333E0,-2.264341278E0,-1.015024246E1,2.109712830E0,9.526213333E0,-1.657009959E0,1.183227897E0,-2.509303093E-1
9.529956333E0,-1.206940155E0,-1.004905289E1,1.169368286E0,9.536195333E0,-1.558891654E0,1.046066642E0,-3.661461174E-1
9.539938333E0,-6.533912659E-1,-9.930798798E0,-1.510359192E-1,9.546177333E0,-1.598943591E0,6.414867640E-1,-4.637313485E-1
9.549920333E0,-3.332070923E-1,-9.745184784E0,-1.412911835E0,9.556159333E0,-1.631730914E0,2.913441956E-1,-5.592453480E-1
9.559902333E0,-1.240919495E-1,-9.354197845E0,-1.524130554E0,9.566141333E0,-1.665443897E0,-1.058130711E-1,-6.040467620E-1
9.569884333E0,2.080673218E-1,-9.242829437E0,-1.656904449E0,9.576123333E0,-1.741753101E0,-4.158380330E-1,-6.686313152E-1
9.579866333E0,9.547146606E-1,-9.041797485E0,-1.941462708E0,9.586105333E0,-1.808520198E0,-4.508791268E-1,-6.623256207E-1
9.589848333E0,1.110839996E0,-8.913813629E0,-1.828896790E0,9.596087333E0,-1.765281081E0,-3.582778275E-1,-6.945256591E-1
9.599830333E0,1.550775146E0,-8.416098633E0,-1.183289337E0,9.606069333E0,-1.608003974E0,-1.244183555E-1,-7.136727571E-1
9.609812333E0,1.150058441E0,-7.863298187E0,-1.440005493E-1,9.616052333E0,-1.467313409E0,-1.957748383E-1,-6.943672299E-1
9.619795333E0,4.767585754E-1,-7.498357086E0,-8.053253174E-2,9.626034333E0,-1.467581630E0,-7.379939556E-1,-5.945340395E-1
9.629777333E0,-2.501298523E-1,-7.640860748E0,-8.080197144E-1,9.636016333E0,-1.468686342E0,-1.193704009E0,-5.327996016E-1
9.639759333E0,-5.882766724E-1,-7.253616028E0,-1.454974365E-1,9.645998333E0,-1.423157811E0,-1.468002915E0,-5.107421279E-1
9.649741333E0,-8.575666809E-1,-6.861132202E0,6.593788147E-1,9.655980333E0,-1.331712604E0,-1.665822268E0,-5.252126455E-1
9.659723333E0,-8.602610779E-1,-6.237229614E0,1.038390656E0,9.665962333E0,-1.186290741E0,-1.818475485E0,-5.434322953E-1
9.669705333E0,-9.834548950E-1,-5.429958344E0,1.181343384E0,9.675944333E0,-9.617179632E-1,-1.791770697E0,-5.721175075E-1
9.679687333E0,-1.345701599E0,-4.724924469E0,1.360820160E0,9.685926333E0,-6.623111367E-1,-1.682410598E0,-6.238883138E-1
9.689669333E0,-1.533860321E0,-4.172124023E0,1.328337708E0,9.695908333E0,-3.189865351E-1,-1.356539488E0,-5.627530217E-1
9.699651333E0,-2.383643188E0,-3.906576233E0,1.253193970E0,9.705890333E0,-2.113293670E-2,-1.087900877E0,-4.524786174E-1
9.709633333E0,-2.923121338E0,-3.853586426E0,7.608677673E-1,9.715873333E0,1.807658374E-1,-9.203698635E-1,-3.261755407E-1
9.719616333E0,-3.133583679E0,-3.815415802E0,1.300794983E-1,9.725855333E0,3.547999263E-1,-7.859127522E-1,-2.096608281E-1
9.729598333E0,-3.157084808E0,-3.738026733E0,-2.514770508E-2,9.735837333E0,5.500591397E-1,-6.284828782E-1,-1.250982732E-1
9.739580333E0,-2.989283752E0,-3.605552216E0,1.194515991E-1,9.745819333E0,7.652075887E-1,-4.521830082E-1,-7.659370452E-2
9.749562333E0,-2.633773041E0,-3.515289917E0,1.213975525E-1,9.755801333E0,9.968890548E-1,-2.913376689E-1,-4.055581242E-2
9.759544333E0,-2.312391357E0,-3.569776611E0,-1.329235840E-1,9.765783333E0,1.225382328E0,-1.814787537E-1,-1.269024983E-2
9.769525875E0,-2.100132751E0,-3.792513428E0,-6.397695923E-1,9.775764875E0,1.427141786E0,-1.299561709E-1,2.226027846E-2
9.779507875E0,-1.958527222E0,-4.171674957E0,-1.410816193E0,9.785746875E0,1.600487590E0,-1.282208413E-1,5.863172561E-2
9.789489875E0,-1.809287567E0,-4.737797699E0,-2.421065369E0,9.795728875E0,1.747497201E0,-1.576093584E-1,9.794477373E-2
9.799471875E0,-1.641486511E0,-5.498515778E0,-3.580554199E0,9.805710875E0,1.837374568E0,-2.109719962E-1,1.598771662E-1
9.809453875E0,-1.627116394E0,-6.561006317E0,-5.077591095E0,9.815693875E0,1.828550458E0,-2.435549796E-1,2.290354669E-1
9.819436875E0,-1.604214020E0,-8.077053680E0,-6.741081848E0,9.825675875E0,1.720484018E0,-1.482788920E-1,2.796335816E-1
9.829418875E0,-1.574126587E0,-1.014200958E1,-7.795938263E0,9.835657875E0,1.489943027E0,1.170060411E-1,2.739839554E-1
9.839400875E0,-1.298699341E0,-1.272294250E1,-8.532855835E0,9.845639875E0,1.027323246E0,5.439917445E-1,2.159364671E-1
9.849382875E0,-8.872050476E-1,-1.597448090E1,-1.046009811E1,9.855621875E0,4.067815840E-1,8.285592794E-1,1.162077487E-1
9.859364875E0,-7.047344971E-1,-1.958572128E1,-1.281140854E1,9.865603875E0,-2.148099840E-1,7.329078317E-1,-1.478044242E-1
9.869346875E0,-3.573069763E-1,-2.236050110E1,-1.382884277E1,9.875585875E0,-8.122861385E-1,1.738573015E-1,-5.203497410E-1
9.879328875E0,3.496728516E-1,-2.220781860E1,-1.378797775E1,9.885567875E0,-1.325840473E0,-6.915851831E-1,-8.310278654E-1
9.889310875E0,7.207511902E-1,-1.926853088E1,-1.321781342E1,9.895549875E0,-1.523952961E0,-1.483757019E0,-9.920566678E-1
9.899292875E0,6.414161682E-1,-1.510793289E1,-1.149863846E1,9.905531875E0,-1.317398906E0,-1.699803114E0,-1.028795958E0
9.909274875E0,2.213896179E-1,-1.091066116E1,-8.621022491E0,9.915514875E0,-8.560974002E-1,-1.348691702E0,-9.783031940E-1
9.919257875E0,2.627037048E-1,-7.211403809E0,-5.989195404E0,9.925496875E0,-2.489652932E-1,-4.052061439E-1,-8.929151893E-1
9.929239875E0,-2.535726929E-1,-4.802313538E0,-3.606150970E0,9.935478875E0,3.724021316E-1,6.265078187E-1,-7.720540166E-1
9.939221875E0,-1.450483704E0,-3.897594910E0,-2.310146027E0,9.945460875E0,8.577614427E-1,1.371491909E0,-5.038704276E-1
9.949203875E0,-3.538341980E0,-4.675976257E0,-1.886976013E0,9.955442875E0,1.043291926E0,1.611883163E0,-1.401564181E-1
9.959185875E0,-5.077740784E0,-6.991062012E0,-2.526146851E0,9.965424875E0,9.157072306E-1,1.515357733E0,1.165423170E-1
9.969167875E0,-3.835174713E0,-9.704768829E0,-3.378923492E0,9.975406875E0,7.499531507E-1,1.668384790E0,2.437133193E-1
9.979149875E0,-1.828747101E0,-1.260259277E1,-2.302661591E0,9.985388875E0,8.719632030E-1,1.891426563E0,2.007230073E-1
9.989131875E0,-2.276765442E-1,-1.485705460E1,2.811902618E0,9.995370875E0,1.175531030E0,1.532840014E0,-8.843023330E-2
9.999113875E0,8.839118958E-1,-1.511886017E1,7.202572174E0,1.000535287E1,1.212480545E0,8.089827299E-1,-4.353490472E-1
1.000909587E1,9.346563721E-1,-1.330358505E1,4.944068756E0,1.001533487E1,8.830491304E-1,4.376065135E-1,-5.221577287E-1
1.001907887E1,-7.767347717E-1,-1.145956970E1,9.506730652E-1,1.002531787E1,1.804151833E-1,1.112656221E-1,-4.055812657E-1
1.002906087E1,-2.443069611E0,-9.857301636E0,-3.514840851E0,1.003529987E1,-4.996355176E-1,-7.603350878E-1,-9.615204483E-2
1.003904288E1,-4.402794342E0,-8.614436188E0,-7.507488098E0,1.004528187E1,-5.987182260E-1,-1.371307731E0,3.496391773E-1
1.004902488E1,-6.212830353E0,-6.992558899E0,-5.154082031E0,1.005526388E1,-2.747368813E-2,-7.381789684E-1,6.500970125E-1
1.005900688E1,-6.340514832E0,-4.810396729E0,7.768844604E-1,1.006524588E1,9.381327033E-1,6.449415088E-1,7.997263074E-1
1.006898888E1,-5.166805573E0,-3.226091309E0,5.375771027E0,1.007522788E1,1.913237691E0,1.991664171E0,8.693024516E-1
1.007897088E1,-3.848497009E0,-2.687960358E0,7.116800537E0,1.008520988E1,2.558153152E0,2.851313114E0,9.668529630E-1
1.008895287E1,-3.101101227E0,-3.632496185E0,7.310198364E0,1.009519188E1,2.742578030E0,3.115372419E0,1.106359720E0
1.009893487E1,-2.799628143E0,-5.773793335E0,7.137008514E0,1.010517387E1,2.537787199E0,2.754228592E0,1.218533874E0
1.010891687E1,-2.267185364E0,-8.447383575E0,6.772217102E0,1.011515587E1,2.123952389E0,2.110651970E0,1.173366666E0
1.011889987E1,-1.292562103E0,-1.121677460E1,5.496420135E0,1.012513887E1,1.604534030E0,1.636268616E0,9.521294236E-1
