"time_acc","acc_x","acc_y","acc_z","time_gyro","gyro_x","gyro_y","gyro_z"
3.188362508E-2,3.008578629E1,1.504805740E1,-1.653012543E1,3.188362508E-2,-2.014147043E0,2.902121097E-2,-1.850035638E-1
4.182962514E-2,1.632595001E1,7.964936829E-1,-6.237229614E0,4.182962514E-2,-1.754191399E0,1.623159170E0,1.213303804E0
5.177462497E-2,1.093521011E1,-7.005581818E0,2.211501160E0,5.177462497E-2,-8.277027011E-1,2.848227262E0,1.936545968E0
6.171962502E-2,7.107968903E0,-5.040318604E0,4.791535950E-1,6.171962502E-2,-8.449963331E-1,1.576229811E0,1.105253577E0
7.166462508E-2,3.389850769E0,-5.797144775E0,2.940036163E0,7.166462508E-2,1.779341847E-1,-1.033776104E-1,9.224578142E-1
8.160962514E-2,7.256460114E0,-4.628075867E0,4.884941711E0,8.160962514E-2,1.768526196E0,-1.531370282E0,1.280695915E0
9.155562520E-2,6.915169830E0,-4.159250793E0,-9.364526367E-1,9.155562520E-2,2.363506079E0,-3.307829142E0,1.421408296E0
1.015006250E-1,6.038592682E0,-5.871240692E0,-2.256856842E0,1.015006250E-1,2.581793308E0,-3.834959745E0,1.509132624E0
1.114456251E-1,7.570057983E0,-5.819897461E0,-7.408094788E-1,1.114456251E-1,2.504803419E0,-3.492929220E0,1.627575278E0
1.213906251E-1,8.105344849E0,-5.005740509E0,-9.804611206E-1,1.213906251E-1,2.151652813E0,-2.892795324E0,1.671285033E0
1.313356252E-1,1.000324814E1,-4.989274750E0,5.031037903E-1,1.313356252E-1,1.835909724E0,-2.092171669E0,1.490212083E0
1.412816250E-1,1.303968384E1,-4.374503174E0,4.023333435E0,1.412816250E-1,1.756959081E0,-1.302707076E0,1.104984283E0
1.512266251E-1,1.349638412E1,-3.588188324E0,3.567531281E0,1.512266251E-1,1.650783896E0,-1.013490200E0,7.598378062E-1
1.611716251E-1,1.120794296E1,-4.236190796E0,-4.544549561E-1,1.611716251E-1,1.080425262E0,-3.981711864E-1,7.510101795E-1
1.711166252E-1,9.286688232E0,-5.381459198E0,-1.391206970E0,1.711166252E-1,6.252398491E-1,4.939008504E-2,7.120689154E-1
1.810616250E-1,8.846004639E0,-4.663701782E0,3.112028503E-1,1.810616250E-1,4.187102616E-1,1.324534267E-1,5.593286753E-1
1.910076251E-1,8.794062653E0,-4.392316132E0,6.601272583E-1,1.910076251E-1,1.650740057E-1,6.663998961E-1,2.827074826E-1
2.009526251E-1,1.051308792E1,-4.454736328E0,1.639091492E0,2.009526251E-1,-6.450669467E-2,1.154123187E0,-3.493546322E-2
2.108976252E-1,1.080034058E1,-4.565655670E0,4.688250732E-1,2.108976252E-1,-3.168159127E-1,1.257183313E0,-3.137252927E-1
2.208426250E-1,9.877659302E0,-4.780608673E0,-1.157692566E0,2.208426250E-1,-4.950216711E-1,9.645333290E-1,-4.477874935E-1
2.307886251E-1,8.224796448E0,-5.925577698E0,-1.493294678E0,2.307886251E-1,-5.405188203E-1,5.406183004E-1,-5.917337537E-1
2.407336251E-1,7.686665497E0,-5.506149902E0,1.055455170E0,2.407336251E-1,-3.678368926E-1,2.710764408E-1,-6.950672865E-1
2.506775002E-1,7.323670349E0,-3.651057587E0,7.072792053E-1,2.506775002E-1,-4.555387795E-1,-7.946960628E-2,-7.181974053E-1
2.606225000E-1,8.061336365E0,-2.378553772E0,-3.083587646E-1,2.606225000E-1,-6.828539968E-1,-2.069113255E-1,-6.676790714E-1
2.705675000E-1,8.947792969E0,-1.999242554E0,9.367520142E-1,2.705675000E-1,-8.509556651E-1,-4.938456044E-2,-4.624982178E-1
2.805135001E-1,1.078282700E1,-2.190844116E0,2.304906921E0,2.805135001E-1,-9.242268205E-1,2.206347436E-1,-3.316728771E-1
2.904585002E-1,1.286978714E1,-2.342478790E0,3.006048889E0,2.904585002E-1,-8.989400864E-1,2.767478228E-1,-2.358283699E-1
3.004035000E-1,1.310779221E1,-2.156266022E0,2.209854584E0,3.004035000E-1,-8.972690701E-1,1.394008845E-1,-1.166220903E-1
3.103485000E-1,1.282188675E1,-1.969454498E0,1.998344421E-1,3.103485000E-1,-1.063967943E0,-1.188352033E-1,-6.735094637E-2
3.202935001E-1,1.158665543E1,-3.120710449E0,-2.498155060E0,3.202935001E-1,-1.331973314E0,-2.113672197E-1,-1.583610661E-2
3.302395002E-1,1.213361801E1,-4.083358612E0,-2.560425568E0,3.302395002E-1,-1.401410460E0,-1.744968146E-1,-1.864962578E-1
3.401845000E-1,1.367032242E1,-4.811594238E0,-1.276246033E0,3.401845000E-1,-1.135818362E0,9.255238809E-3,-4.914550781E-1
3.501295000E-1,1.536285278E1,-5.835165710E0,5.373825073E-1,3.501295000E-1,-5.860260129E-1,2.097234875E-2,-8.431864977E-1
3.600745001E-1,1.488160355E1,-6.878645782E0,2.031275940E-1,3.600745001E-1,-1.897216737E-1,-8.972118795E-2,-1.183104634E0
3.700195001E-1,1.360445938E1,-7.720944214E0,5.282514954E-1,3.700195001E-1,-7.947106659E-2,-9.985824674E-2,-1.556465745E0
3.799655000E-1,1.143966110E1,-9.406888275E0,2.385439453E0,3.799655000E-1,-6.782671064E-2,2.591609657E-1,-1.627127886E0
3.899105000E-1,8.287066956E0,-1.182885178E1,3.466790771E0,3.899105000E-1,1.211895496E-1,4.685306847E-1,-1.463445425E0
3.998555001E-1,8.046816559E0,-1.067475174E1,4.769082642E0,3.998555001E-1,6.041439772E-1,8.520346880E-1,-1.526451111E0
4.098005001E-1,6.781797180E0,-9.993817749E0,7.148983612E0,4.098005001E-1,8.468221426E-1,1.382310510E0,-1.316390991E0
4.197455002E-1,3.657045135E0,-1.235590576E1,7.575746155E-1,4.197455002E-1,3.905285299E-1,8.027117252E-1,-8.416343331E-1
4.296915000E-1,3.054847412E0,-1.075288925E1,7.234455872E-1,4.296915000E-1,3.689593077E-1,4.856453836E-1,-2.814120352E-1
4.396365001E-1,3.835923157E0,-9.044940948E0,2.514022064E0,4.396365001E-1,5.172942877E-1,4.291519225E-1,5.948959664E-2
4.495815001E-1,7.634274445E0,-6.965764618E0,3.599564667E0,4.495815001E-1,5.838895440E-1,2.930356264E-1,-8.100067079E-2
4.595265002E-1,9.665700073E0,-5.605094147E0,4.679269409E0,4.595265002E-1,5.742080808E-1,4.587199986E-1,-1.949600279E-1
4.694715000E-1,7.903265076E0,-6.746620331E0,4.142335968E0,4.694715000E-1,5.979376435E-1,4.962598979E-1,-1.220805477E-2
4.794175001E-1,5.555996246E0,-6.760242004E0,2.230062561E0,4.794175001E-1,6.550354362E-1,3.580619395E-1,3.051965535E-1
4.893625001E-1,3.963457947E0,-6.285130005E0,-2.089654541E-1,4.893625001E-1,7.519497275E-1,-7.684184611E-2,5.782546997E-1
4.993075002E-1,2.896327057E0,-5.467829590E0,-2.077829132E0,4.993075002E-1,7.734062076E-1,-8.181495070E-1,9.124952555E-1
5.092525000E-1,3.124153290E0,-4.330494690E0,-2.926115112E0,5.092525000E-1,6.407637000E-1,-1.555228114E0,1.263850927E0
5.191975001E-1,5.408103790E0,-3.755390625E0,-2.507435760E0,5.191975001E-1,4.095620513E-1,-2.288091660E0,1.570386291E0
5.291435001E-1,6.758745117E0,-3.826492767E0,-2.629282379E0,5.291435001E-1,-6.310352683E-2,-2.708148003E0,2.166615486E0
5.390885002E-1,7.770790558E0,-6.120322723E0,-1.597178650E0,5.390885002E-1,-5.206093788E-1,-2.505150318E0,2.894583225E0
5.490335000E-1,9.425599365E0,-6.956783295E0,8.078700256E-1,5.490335000E-1,-7.299492955E-1,-2.054847240E0,3.201184511E0
5.589785001E-1,1.253179001E1,-3.914509735E0,3.022364960E0,5.589785001E-1,-6.198241711E-1,-2.227061033E0,2.845310926E0
5.689235001E-1,1.312066544E1,-2.412832489E0,-6.962022400E-1,5.689235001E-1,-7.538158298E-1,-2.219743967E0,2.512846708E0
5.788695002E-1,1.160910873E1,-3.976630554E0,-1.359023895E0,5.788695002E-1,-7.834492922E-1,-2.329198837E0,2.537484407E0
5.888145000E-1,9.795929260E0,-4.311334534E0,4.716691589E-1,5.888145000E-1,-7.353153229E-1,-1.926763177E0,2.480951309E0
5.987595001E-1,8.064180450E0,-3.710933075E0,2.052382050E0,5.987595001E-1,-5.765629411E-1,-1.059724808E0,2.243719578E0
6.087045001E-1,5.618865509E0,-3.581751709E0,2.659669189E0,6.087045001E-1,-4.396770000E-1,-3.559951186E-1,2.030342102E0
6.186495002E-1,4.040098572E0,-3.243006134E0,1.348994751E0,6.186495002E-1,-4.380315244E-1,6.978804618E-2,2.042109728E0
6.285955000E-1,2.110161896E0,-4.004322968E0,1.076860657E0,6.285955000E-1,-4.870251715E-1,6.154202223E-1,2.279683352E0
6.385405001E-1,7.937992859E-1,-3.747457123E0,-4.746629333E-1,6.385405001E-1,-4.033580124E-1,5.065012574E-1,2.780772686E0
6.484855001E-1,2.157912598E0,-3.254831543E0,-1.420995026E0,6.484855001E-1,-3.255015612E-1,8.144974709E-1,2.455125332E0
6.584305002E-1,2.241139526E0,-5.921087036E0,-5.998027039E-1,6.584305002E-1,-6.009762287E-1,1.707599401E0,2.497853518E0
6.683755000E-1,-2.379601593E0,-6.048172760E0,-4.250560913E0,6.683755000E-1,-1.860952616E0,3.444942713E0,2.842373610E0
6.783215001E-1,4.946763153E0,-4.109703827E0,-3.244353333E0,6.783215001E-1,-2.164978743E0,4.050724983E0,2.272803545E0
6.882665001E-1,5.441184998E0,-2.174228668E0,1.240021362E0,6.882665001E-1,-1.888493180E0,3.836225986E0,2.086472988E0
6.982115002E-1,4.926106110E0,-3.346291351E0,2.845881958E0,6.982115002E-1,-4.388096035E-1,1.190031886E0,1.687975049E0
7.081565000E-1,7.497908020E0,-3.215463409E0,3.919748840E0,7.081565000E-1,5.200090408E-1,5.131705403E-1,1.728271604E0
7.181015001E-1,6.903494110E0,-3.585194550E0,-2.347867584E0,7.181015001E-1,3.436501920E-1,1.590129882E-1,1.892712951E0
7.280465001E-1,5.814358978E0,-6.308780823E0,-2.392624512E0,7.280465001E-1,3.408517540E-1,2.402157038E-1,2.109064102E0
7.379925002E-1,6.298003235E0,-7.707023163E0,-1.039737854E0,7.379925002E-1,5.961934328E-1,-7.000426948E-2,2.177478552E0
7.479375000E-1,8.040230255E0,-9.392218781E0,-1.533860321E0,7.479375000E-1,1.018735647E0,-7.214300036E-1,1.963090777E0
7.578825001E-1,8.160280609E0,-1.133907028E1,-3.442840576E0,7.578825001E-1,1.022191644E0,-9.812420607E-1,1.799759388E0
7.678275001E-1,6.153703308E0,-1.231519043E1,-4.720882874E0,7.678275001E-1,7.412433624E-1,-8.645940423E-1,1.667579770E0
7.777725002E-1,6.138584747E0,-1.218570969E1,-3.224295044E0,7.777725002E-1,4.283904135E-1,-4.117179215E-1,1.476567149E0
7.877185000E-1,6.687193909E0,-1.132949020E1,-9.880952454E-1,7.877185000E-1,1.411799490E-1,1.535614431E-1,1.282664299E0
7.976635001E-1,6.521338806E0,-1.136167328E1,8.150550842E-1,7.976635001E-1,-9.321131743E-3,6.295104027E-1,1.003930330E0
8.076085001E-1,6.921905823E0,-1.151390671E1,1.648222504E0,8.076085001E-1,1.128214691E-2,8.979120255E-1,5.614619255E-1
8.175535002E-1,7.379653931E0,-1.227567261E1,4.388873291E-1,8.175535002E-1,7.729142159E-2,4.782859385E-1,-2.665488608E-2
8.274985000E-1,7.308551788E0,-1.401894745E1,-2.286644897E0,8.274985000E-1,-1.484855115E-1,-4.635124803E-1,-5.669623613E-1
8.374445001E-1,7.381450195E0,-1.640393784E1,-5.378315735E0,8.374445001E-1,-1.016603112E0,-1.523154974E0,-1.086811781E0
8.473895001E-1,6.839577026E0,-1.642369675E1,-4.949457550E0,8.473895001E-1,-2.104658127E0,-1.458550930E0,-1.506323814E0
8.573345002E-1,6.305337982E0,-1.480720825E1,-2.040257263E0,8.573345002E-1,-3.023262978E0,-5.769662857E-1,-1.509884715E0
8.672795000E-1,6.001320190E0,-1.379231873E1,-1.347048798E0,8.672795000E-1,-3.690544605E0,4.962035269E-2,-9.928051829E-1
8.772245001E-1,8.984317017E0,-1.375744125E1,4.141886902E-1,8.772245001E-1,-4.019713879E0,5.955544710E-1,-3.079174459E-1
8.871705001E-1,1.173544601E1,-1.336600525E1,2.649041290E0,8.871705001E-1,-3.871407032E0,6.555387378E-1,1.256324053E-1
8.971155002E-1,1.011686188E1,-1.167871399E1,3.010838928E0,8.971155002E-1,-3.619118452E0,3.129622638E-1,4.943295121E-1
9.070605000E-1,5.876629486E0,-1.040426422E1,4.320016479E-1,9.070605000E-1,-3.524498701E0,1.593831033E-1,9.647889137E-1
9.170055001E-1,2.781515808E0,-9.884844360E0,-3.391647034E0,9.170055001E-1,-3.102607965E0,5.121469870E-2,1.398203611E0
9.269505001E-1,1.483714600E0,-1.051293823E1,-2.556833038E0,9.269505001E-1,-2.117880344E0,2.315562516E-1,1.602341294E0
9.368955002E-1,3.079546051E0,-1.016880386E1,5.791456604E-1,9.368955002E-1,-8.930879831E-1,5.711743832E-1,1.260607243E0
9.468415000E-1,4.272116089E0,-7.888445892E0,1.893562317E0,9.468415000E-1,1.523720920E-1,5.789582133E-1,7.811644673E-1
9.567865001E-1,2.741848297E0,-6.234535217E0,2.387684784E0,9.567865001E-1,8.453820348E-1,7.579026818E-1,5.195373893E-1
9.667315001E-1,1.875899048E0,-5.946983185E0,1.464105377E0,9.667315001E-1,1.248472810E0,7.596942186E-1,3.346985579E-1
9.766765002E-1,3.265609131E0,-5.007237396E0,7.613168335E-1,9.766765002E-1,1.550793290E0,4.825724065E-1,3.441709653E-2
9.866215000E-1,5.008434906E0,-4.859794006E0,1.079405365E0,9.866215000E-1,1.744358659E0,1.920713037E-1,-2.689273357E-1
9.965675001E-1,4.950804749E0,-5.079537048E0,8.771759033E-1,9.965675001E-1,1.827484965E0,-7.073301822E-2,-4.484764040E-1
1.006512500E0,4.626578979E0,-5.209466858E0,3.709286499E-1,1.006512500E0,1.811575770E0,-2.161448151E-1,-5.535801649E-1
1.016457500E0,4.222419434E0,-6.662046204E0,8.740324402E-1,1.016457500E0,1.727196574E0,-1.377762705E-1,-5.387061238E-1
1.026402500E0,2.911744995E0,-7.656428375E0,1.080004120E0,1.026402500E0,1.591886997E0,3.268856704E-1,-3.751901686E-1
1.036347500E0,1.965412903E-1,-6.986571350E0,2.454296265E0,1.036347500E0,1.468122005E0,1.412767649E0,4.281691462E-2
1.046293500E0,-1.385967865E0,-7.440876617E0,9.086105347E-2,1.046293500E0,1.247034907E0,1.618974328E0,6.970010996E-1
1.056238500E0,-5.860313416E-1,-8.850644989E0,-4.148323517E0,1.056238500E0,8.439438939E-1,7.844734788E-1,1.297536254E0
1.066183500E0,2.172133026E0,-9.888736267E0,-3.970643005E0,1.066183500E0,4.561029673E-1,2.082993984E-1,1.560038209E0
1.076128500E0,3.979175262E0,-1.056248520E1,-2.841091919E-1,1.076128500E0,2.461925596E-1,2.349210978E-1,1.579148293E0
1.086073500E0,4.349205780E0,-1.082593735E1,1.895957336E0,1.086073500E0,2.080883235E-1,3.802585900E-1,1.418010473E0
1.096018500E0,3.676354980E0,-9.175170135E0,1.950444031E0,1.096018500E0,8.932280540E-2,2.010508478E-1,3.820600212E-1
1.105964500E0,5.966592407E-1,-7.584278412E0,1.621577911E0,1.105964500E0,-1.252153981E-2,-1.312828958E-1,-1.029367819E-1
1.115909500E0,-7.406597900E-1,-7.652536469E0,9.818083191E-1,1.115909500E0,-1.087101363E-2,-3.418332934E-1,9.101082385E-2
1.125854500E0,1.378633118E0,-7.038812714E0,3.104544067E-1,1.125854500E0,1.190753561E-2,-2.214821279E-1,5.839217305E-1
1.135799500E0,3.246748352E0,-7.217840424E0,2.068698120E-1,1.135799500E0,4.571017623E-2,1.398908347E-1,8.992701173E-1
1.145744500E0,4.298311615E0,-7.035669250E0,1.669029236E-1,1.145744500E0,6.301646680E-2,5.186314583E-1,9.818472862E-1
1.155690500E0,4.686155090E0,-6.679260406E0,5.165757751E-1,1.155690500E0,9.050331078E-3,9.493530393E-1,1.001428962E0
1.165635500E0,4.464615784E0,-6.248755646E0,3.327580261E-1,1.165635500E0,-1.050792448E-2,9.743015170E-1,9.511418343E-1
1.175580500E0,3.317401428E0,-5.267396393E0,-2.796185303E-1,1.175580500E0,-1.320775319E-2,5.939639211E-1,8.165152669E-1
1.185525500E0,2.493664398E0,-4.317322083E0,-3.025209045E-1,1.185525500E0,-6.913067400E-2,1.312889904E-1,6.741730571E-1
1.195470500E0,2.328258362E0,-3.773802338E0,-1.347198486E-3,1.195470500E0,-5.364109576E-2,-2.000800520E-1,5.578925610E-1
1.205415500E0,2.632575531E0,-4.374802551E0,8.217910767E-2,1.205415500E0,-2.811842412E-2,-6.111951172E-2,5.220485330E-1
1.215361500E0,3.328029327E0,-5.197940826E0,-6.340814209E-1,1.215361500E0,-1.255977005E-1,2.565885782E-1,5.937190056E-1
1.225306500E0,4.174968109E0,-6.568790131E0,-1.340462494E0,1.225306500E0,-2.414699793E-1,4.916397035E-1,7.133601904E-1
1.235251500E0,5.421725464E0,-7.357200623E0,-9.119036865E-1,1.235251500E0,-2.323115617E-1,5.618054271E-1,6.700353622E-1
1.245196542E0,6.265820160E0,-7.714357910E0,-4.742138672E-1,1.245196542E0,-1.575654298E-1,2.830028236E-1,6.408526897E-1
1.255141542E0,5.717959442E0,-8.709937592E0,-1.709445190E-1,1.255141542E0,1.687748544E-2,-1.610244364E-1,7.175652981E-1
1.265087542E0,5.006189575E0,-9.000184021E0,-1.612147522E-1,1.265087542E0,2.170007229E-1,-4.739652872E-1,8.578302860E-1
1.275032542E0,4.602030029E0,-8.817713470E0,-7.746391296E-1,1.275032542E0,3.544768691E-1,-6.080494523E-1,1.001143575E0
1.284977542E0,4.397704926E0,-8.692873077E0,-1.180594940E0,1.284977542E0,3.871850073E-1,-5.906688571E-1,1.130569458E0
1.294922542E0,4.408632202E0,-8.960815887E0,-1.394799500E0,1.294922542E0,3.915297389E-1,-3.956228197E-1,1.216327429E0
1.304867542E0,4.482578430E0,-9.499395905E0,-1.923799438E0,1.304867542E0,2.878733873E-1,-2.637667656E-1,1.308295488E0
1.314812542E0,4.411925354E0,-9.299112396E0,-2.036065979E0,1.314812542E0,1.907490641E-1,-1.515393704E-1,1.293217659E0
1.324758542E0,4.517904968E0,-8.504414978E0,-8.297245789E-1,1.324758542E0,2.438607514E-1,7.329826057E-2,1.127139211E0
1.334703542E0,3.723955994E0,-8.603808289E0,4.140390015E-1,1.334703542E0,3.232176006E-1,4.897711575E-1,1.034134150E0
1.344648542E0,1.251697083E0,-9.265432434E0,5.480104065E-1,1.344648542E0,4.198418856E-1,5.681197643E-1,1.095252156E0
1.354593542E0,2.240391083E0,-1.105466171E1,-6.674620056E-1,1.354593542E0,7.617389560E-1,1.094260290E-1,1.174664497E0
1.364538542E0,3.668271790E0,-8.106991425E0,1.945953369E-1,1.364538542E0,1.451888442E0,1.809662580E-1,1.128744245E0
1.374483542E0,8.865314484E0,-1.249481689E1,-1.614991608E0,1.374483542E0,1.274545074E0,5.004331842E-2,6.076055169E-1
1.384429542E0,9.469757538E0,-1.135553604E1,-2.360890503E0,1.384429542E0,7.453057766E-1,3.212037086E-1,3.641001880E-1
1.394374542E0,7.797285461E0,-1.020951920E1,-8.277786255E-2,1.394374542E0,7.160833478E-1,7.133230567E-1,-6.346066296E-2
1.404319542E0,5.939049683E0,-1.368319565E1,-1.183139648E0,1.404319542E0,5.583714843E-1,5.453851819E-1,-1.827335209E-1
1.414264542E0,3.253184967E0,-1.362915802E1,-1.259480896E0,1.414264542E0,3.278480768E-1,2.327197492E-1,-7.104270160E-2
1.424209542E0,1.688488770E0,-1.337753128E1,6.526428223E-2,1.424209542E0,1.123826206E-1,-1.928083897E-1,2.373972908E-2
1.434155542E0,2.352807312E0,-1.489357864E1,5.761518860E-1,1.434155542E0,-7.853472233E-2,-3.218389750E-1,9.476830065E-2
1.444100542E0,2.777923279E0,-1.405651932E1,3.752696228E-1,1.444100542E0,-2.517778575E-1,-2.633839250E-1,3.475849703E-2
1.454045542E0,2.825823669E0,-1.262953674E1,5.062472534E-1,1.454045542E0,-3.300632536E-1,-1.311040968E-1,-7.285554707E-2
1.463990542E0,1.769769745E0,-1.218076996E1,2.423460388E-1,1.463990542E0,-3.146712482E-1,-9.579804540E-2,-6.503730267E-2
1.473935542E0,2.197430420E-1,-1.309102707E1,2.838098145E-1,1.473935542E0,-3.358986676E-1,8.046852052E-2,6.178275868E-2
1.483880542E0,-1.425635376E0,-1.475391907E1,-1.191522217E-1,1.483880542E0,-5.668482184E-1,3.920402527E-1,2.114300430E-1
1.493826542E0,-1.719474335E0,-1.532138901E1,-3.306623840E-1,1.493826542E0,-8.771589398E-1,7.903143764E-1,2.313643694E-1
1.503771542E0,-1.298399963E0,-1.506796600E1,-1.389111328E-1,1.503771542E0,-1.256871581E0,1.259081244E0,3.454745188E-2
1.513716542E0,-4.653822327E-1,-1.531016235E1,1.505868530E-1,1.513716542E0,-1.567133784E0,1.207281828E0,-4.755116403E-1
1.523661542E0,-3.954776001E-1,-1.464539474E1,1.619332581E0,1.523661542E0,-1.652087331E0,1.110777140E0,-7.319476604E-1
1.533606542E0,-2.156415710E0,-1.405651932E1,2.517165527E0,1.533606542E0,-1.665621758E0,1.178476691E0,-8.208868504E-1
1.543551542E0,-3.637435913E0,-1.443612991E1,2.489622803E0,1.543551542E0,-1.523294210E0,6.063734293E-1,-7.682499886E-1
1.553497542E0,-3.293301544E0,-1.295885193E1,5.887257385E-1,1.553497542E0,-1.209308863E0,2.854629457E-1,-6.614832878E-1
1.563442542E0,-1.611997833E0,-1.270857239E1,-3.520678711E-1,1.563442542E0,-1.153245568E0,6.659743935E-2,-6.080818176E-1
1.573387542E0,4.769082642E-1,-1.268207748E1,-1.642684021E0,1.573387542E0,-1.319150448E0,-3.783945441E-1,-6.375516653E-1
1.583332542E0,1.608255615E0,-1.234138596E1,-2.318079529E0,1.583332542E0,-1.402995825E0,-1.083033919E0,-4.485467970E-1
1.593277542E0,1.949994965E0,-1.138173157E1,-2.466570740E0,1.593277542E0,-1.301990390E0,-1.802022457E0,-8.976902068E-2
1.603222542E0,2.814896393E0,-9.055718536E0,-2.210303650E0,1.603222542E0,-1.303515077E0,-2.114316463E0,2.169264704E-1
1.613168542E0,4.219275970E0,-7.583380280E0,-1.964963837E0,1.613168542E0,-1.268333435E0,-1.975275397E0,4.995654225E-1
1.623113542E0,5.454806671E0,-6.288722534E0,-7.903564453E-1,1.623113542E0,-9.065715671E-1,-1.057150006E0,5.276650190E-1
1.633058542E0,5.203628998E0,-5.947581940E0,-1.096469879E0,1.633058542E0,-6.845709682E-1,-1.946490854E-1,2.150209695E-1
1.643003542E0,4.266577606E0,-6.706503754E0,-2.159409485E0,1.643003542E0,-6.452954412E-1,1.667999178E-1,2.295991033E-1
1.652948542E0,3.691473541E0,-7.063661041E0,-1.635349274E0,1.652948542E0,-7.161536813E-1,1.494184136E-1,1.082618609E-1
1.662893542E0,3.086731110E0,-6.254593506E0,-1.005608826E0,1.662893542E0,-7.139422297E-1,-5.980884284E-2,-8.284461685E-3
1.672839542E0,1.968107300E0,-6.077811127E0,-7.204518127E-1,1.672839542E0,-6.312783957E-1,-3.951150179E-1,-9.516905993E-2
1.682784542E0,9.261241150E-1,-5.882167969E0,-2.221380615E-1,1.682784542E0,-4.871068001E-1,-6.680746675E-1,-2.432333678E-1
1.692729542E0,5.138813782E-1,-5.588179321E0,5.388793945E-2,1.692729542E0,-2.734383643E-1,-8.353524804E-1,-4.098464847E-1
1.702674542E0,3.727249146E-1,-5.928272095E0,-1.567240906E-1,1.702674542E0,-4.962229729E-2,-9.499267340E-1,-5.535687208E-1
1.712619542E0,3.493734741E-1,-5.604645081E0,-3.251239014E-1,1.712619542E0,1.142582446E-1,-1.036743760E0,-7.655324936E-1
1.722564542E0,1.863624573E-1,-4.415517883E0,-2.817141724E-1,1.722564542E0,2.642956674E-1,-1.077279449E0,-9.750005007E-1
1.732510542E0,-5.890251160E-1,-3.013233948E0,-4.561015320E-1,1.732510542E0,2.081477940E-1,-1.085030675E0,-6.661582589E-1
1.742455542E0,-1.231189728E0,-1.916764069E0,-7.490423584E-1,1.742455542E0,-9.424377233E-2,-8.820596933E-1,-1.147307679E-1
1.752400542E0,-6.339317322E-1,-1.866618347E0,-1.068328400E0,1.752400542E0,-2.656758726E-1,-8.582991958E-1,7.665808499E-2
1.762345542E0,-1.275347900E-1,-2.119143219E0,-1.775008850E0,1.762345542E0,-3.358445764E-1,-1.148952007E0,1.664902419E-1
1.772290542E0,-1.808239746E-1,-2.700384521E0,-2.210004272E0,1.772290542E0,-2.908740342E-1,-1.615734220E0,2.336697578E-1
1.782235542E0,4.043092346E-1,-3.021915894E0,-2.414029999E0,1.782235542E0,-7.618647069E-2,-1.952391148E0,2.258480638E-1
1.792181542E0,8.716374207E-1,-1.249900818E0,-2.394420776E0,1.792181542E0,2.187191993E-1,-1.740807176E0,1.374229193E-1
1.802126542E0,-2.706372070E-1,-1.657054138E-1,-2.863694916E0,1.802126542E0,3.878107369E-1,-1.401167274E0,2.272052616E-1
1.812071542E0,-1.792073364E0,-3.905079346E0,-3.795357513E0,1.812071542E0,2.887315452E-1,-1.057340503E0,5.540404320E-1
1.822016542E0,-3.023712158E0,-9.283544769E0,-4.264481964E0,1.822016542E0,1.894078851E-1,-8.877682090E-1,1.218563080E0
1.831961542E0,-4.700225830E0,-1.442011322E1,-2.673141174E0,1.831961542E0,3.622614741E-1,-6.451678276E-1,1.997924089E0
1.841906542E0,-7.825726318E-1,-1.593166992E1,-2.839145966E0,1.841906542E0,1.868630201E-1,-5.842770338E-1,2.369582415E0
1.851852542E0,3.102448425E0,-1.249556534E1,-3.893104248E0,1.851852542E0,3.827209771E-1,-4.382455945E-1,2.300624609E0
1.861797542E0,4.193828888E0,-1.082174606E1,-2.300565948E0,1.861797542E0,6.425586939E-1,1.313057691E-1,2.176827192E0
1.871742542E0,5.065166931E0,-1.215547256E1,-3.471880188E0,1.871742542E0,7.017306089E-1,3.480975926E-1,2.009018660E0
1.881687542E0,4.308789825E0,-1.396056885E1,-6.330635376E0,1.881687542E0,4.739821553E-1,-1.452247500E-1,1.977742195E0
1.891632542E0,2.306254120E0,-1.531375488E1,-5.836363220E0,1.891632542E0,3.330293298E-1,-6.120838523E-1,1.975702643E0
1.901577542E0,1.159488831E0,-1.469494171E1,-3.278632050E0,1.901577542E0,1.450099051E-1,-4.970773757E-1,1.795729160E0
1.911523542E0,1.259331207E0,-1.440424622E1,-4.503385162E0,1.911523542E0,-3.170560598E-1,-4.861516058E-1,1.482268214E0
1.921468542E0,2.157613220E0,-1.489896744E1,-7.332651672E0,1.921468542E0,-1.041146874E0,-6.443973780E-1,1.023412466E0
1.931413542E0,2.724634094E0,-1.449540665E1,-8.288414154E0,1.931413542E0,-1.651471972E0,-8.892346025E-1,5.342088938E-1
1.941358542E0,2.627785492E0,-1.290496399E1,-8.370892639E0,1.941358542E0,-1.804726005E0,-1.156994462E0,9.971221909E-3
1.951303542E0,2.568508759E0,-1.114627121E1,-7.449558563E0,1.951303542E0,-1.383504510E0,-8.833491802E-1,-4.073079824E-1
1.961248542E0,1.230441284E0,-1.046668442E1,-6.448290710E0,1.961248542E0,-6.985597014E-1,-1.833754033E-1,-5.774579048E-1
1.971194542E0,-2.865042114E-1,-1.005758514E1,-4.240831146E0,1.971194542E0,-1.725419611E-1,1.797139496E-1,-7.432319522E-1
1.981139542E0,-2.372566223E-1,-1.108504852E1,-3.156486053E0,1.981139542E0,1.390737295E-1,8.408861607E-2,-9.035552740E-1
1.991084542E0,-1.501677246E0,-1.334130661E1,-2.708916779E0,1.991084542E0,2.411858439E-1,-3.640098870E-2,-8.505256176E-1
2.001029542E0,-3.523373108E0,-1.440364746E1,-1.302291870E0,2.001029542E0,3.405891061E-1,-1.216356084E-2,-6.433463693E-1
2.010974542E0,-4.936734009E0,-1.372421036E1,9.422904968E-1,2.010974542E0,4.160498083E-1,7.006023079E-2,-3.727799058E-1
2.020919542E0,-4.943619690E0,-1.497785339E1,3.475772095E-1,2.020919542E0,1.867772043E-1,-2.437146008E-2,-3.375948593E-2
2.030865542E0,-3.641178131E0,-1.424692337E1,-2.130070496E-1,2.030865542E0,-1.258478314E-2,-2.016323209E-1,1.756077707E-1
2.040810542E0,-2.731968842E0,-1.061083466E1,1.166075134E0,2.040810542E0,1.815117151E-1,-2.165228575E-1,3.910481930E-1
2.050755542E0,-2.690355377E0,-8.243357849E0,1.944456482E0,2.050755542E0,5.747142434E-1,-3.069472313E-1,6.037114859E-1
2.060700542E0,-1.674867096E0,-6.945107574E0,1.688937836E0,2.060700542E0,8.762642741E-1,-1.160374656E-1,6.713073254E-1
2.070645542E0,-3.603007507E-1,-4.948409729E0,3.725003815E0,2.070645542E0,1.328452587E0,4.649209678E-1,6.309936047E-1
2.080590542E0,8.635542297E-1,-9.517657928E0,2.561473389E0,2.080590542E0,1.221539736E0,4.294913411E-1,7.367615700E-1
2.090535542E0,2.863994293E0,-1.491603195E1,-1.518592072E0,2.090535542E0,6.582534313E-1,-3.895038664E-1,5.315639377E-1
2.100481542E0,2.989583130E0,-1.098311050E1,-2.332000580E0,2.100481542E0,-1.963954121E-1,-1.773971081E0,3.188913316E-2
2.110426542E0,1.830842743E0,-1.209784241E1,-1.859582977E0,2.110426542E0,-4.889086187E-1,-2.325694084E0,-1.158390939E-1
2.120371542E0,1.522783356E0,-1.403750885E1,9.114546204E-1,2.120371542E0,-1.608247608E-1,-2.129290581E0,1.116649061E-1
2.130316542E0,1.926643524E0,-1.229498245E1,1.619332581E0,2.130316542E0,3.327550888E-1,-1.575489163E0,2.953131497E-1
2.140261542E0,2.228266296E0,-8.493936768E0,3.343596954E0,2.140261542E0,8.389399648E-1,-3.929046690E-1,2.413007766E-1
2.150206542E0,3.288361816E0,-5.913752289E0,3.481460266E0,2.150206542E0,1.582253933E0,2.529607154E-4,-4.943848774E-2
2.160152542E0,1.588496704E0,-5.614524536E0,-1.352587280E0,2.160152542E0,1.640404344E0,1.792610586E-1,-1.408384442E-1
2.170097542E0,-9.972262573E-1,-4.552632751E0,-2.616708527E0,2.170097542E0,1.383806825E0,-2.229706012E-2,-6.577793509E-2
2.180042542E0,-3.153641968E0,-5.220843201E0,-2.973716125E0,2.180042542E0,1.091747761E0,-1.328445971E-1,4.680586606E-2
2.189987542E0,-4.112996979E0,-6.703360291E0,-2.298170929E0,2.189987542E0,8.745573759E-1,1.820421033E-2,1.814123690E-1
2.199932542E0,-4.661157074E0,-7.113806763E0,-1.362317047E0,2.199932542E0,7.628864646E-1,3.894403279E-1,3.175137341E-1
2.209877542E0,-4.690795441E0,-7.475604401E0,-6.809339905E-1,2.209877542E0,6.926710010E-1,8.142701983E-1,4.152064025E-1
2.219822542E0,-4.041745148E0,-7.769293671E0,-1.193019104E-1,2.219822542E0,5.975368023E-1,1.102488995E0,4.716725945E-1
2.229768542E0,-2.875819702E0,-7.960146790E0,2.291734314E-1,2.229768542E0,5.379686356E-1,1.206266761E0,4.638046026E-1
2.239713542E0,-1.481618958E0,-8.128546600E0,7.150630188E-1,2.239713542E0,5.436465144E-1,1.166965008E0,3.943365812E-1
2.249658500E0,-5.219645691E-1,-8.760532379E0,1.500030670E0,2.249658500E0,6.215204597E-1,1.135571241E0,3.224203885E-1
2.259603500E0,-1.207987976E-1,-9.463769989E0,2.197729797E0,2.259603500E0,7.387799621E-1,1.090343833E0,2.764702141E-1
2.269548500E0,3.571572876E-1,-9.994865570E0,1.817071381E0,2.269548500E0,8.674007654E-1,8.928917050E-1,2.477931827E-1
2.279493500E0,8.824150085E-1,-1.029050079E1,1.034498749E0,2.279493500E0,9.737322330E-1,7.583546638E-1,2.179442197E-1
2.289439500E0,1.190175018E0,-1.028122009E1,2.061213684E-1,2.289439500E0,1.030779362E0,7.646616697E-1,2.069523036E-1
2.299384500E0,1.287173309E0,-1.002210892E1,-8.946894836E-1,2.299384500E0,9.685753584E-1,8.609104753E-1,2.099861652E-1
2.309329500E0,1.099463654E0,-9.752669220E0,-1.970652008E0,2.309329500E0,8.040565252E-1,9.445353746E-1,2.371688336E-1
2.319274500E0,8.075706482E-1,-9.414223022E0,-2.457589417E0,2.319274500E0,6.172161102E-1,9.849339724E-1,2.807552218E-1
2.329219500E0,5.448669434E-1,-9.211394806E0,-2.284848633E0,2.329219500E0,4.618847370E-1,9.867461920E-1,3.458135724E-1
2.339164500E0,4.655319214E-1,-9.146130524E0,-1.727108459E0,2.339164500E0,3.725250363E-1,9.471377730E-1,4.168640375E-1
2.349110500E0,6.322851562E-1,-8.940907288E0,-9.419911194E-1,2.349110500E0,3.596966267E-1,8.623346090E-1,4.917649627E-1
2.359055500E0,8.038284302E-1,-8.837472382E0,-3.207829285E-1,2.359055500E0,4.049080312E-1,7.433227301E-1,5.661020875E-1
2.369000500E0,9.702822876E-1,-8.512049103E0,-1.627116394E-1,2.369000500E0,4.772594273E-1,5.700999498E-1,6.289917231E-1
2.378945500E0,1.214873657E0,-8.118517456E0,-7.662565613E-1,2.378945500E0,5.130041242E-1,3.252092600E-1,6.571189761E-1
2.388890500E0,1.339863739E0,-8.093519440E0,-1.632505188E0,2.388890500E0,4.745458364E-1,1.128394231E-1,6.673802137E-1
2.398835500E0,1.340612183E0,-8.589438171E0,-2.220781860E0,2.398835500E0,3.657668829E-1,-1.030248404E-2,6.632992029E-1
2.408780500E0,1.332828369E0,-9.157506866E0,-2.196382599E0,2.408780500E0,2.392067909E-1,-6.961108185E-3,6.433328986E-1
2.418726500E0,1.381477203E0,-9.414522400E0,-1.453178101E0,2.418726500E0,1.856349111E-1,5.432808399E-2,5.823997259E-1
2.428671500E0,1.378633118E0,-9.705966339E0,-5.685177612E-1,2.428671500E0,2.358780056E-1,8.189284056E-2,4.877585173E-1
2.438616500E0,1.246757355E0,-9.811796265E0,-4.782554626E-1,2.438616500E0,2.809536159E-1,4.053714499E-2,3.822781742E-1
2.448561500E0,9.976753235E-1,-9.731563110E0,-9.677375793E-1,2.448561500E0,3.162274957E-1,5.448061228E-2,3.152214289E-1
2.458506500E0,3.945794678E-1,-9.549391937E0,-2.850073242E-1,2.458506500E0,3.164621294E-1,2.798761725E-1,3.161948025E-1
2.468451500E0,4.623884583E-1,-9.779762878E0,-1.196012878E-1,2.468451500E0,3.486627340E-1,1.881472319E-1,3.304205537E-1
2.478396500E0,1.498683472E0,-1.017568954E1,-5.176235962E-1,2.478396500E0,4.144502580E-1,-1.983834356E-1,3.084931970E-1
2.488342500E0,3.021915894E0,-1.055769516E1,-8.119116211E-1,2.488342500E0,4.673996568E-1,-6.310713291E-1,2.500436902E-1
2.498287500E0,4.423750763E0,-1.106034988E1,-1.132544861E0,2.498287500E0,4.858524203E-1,-8.878645301E-1,1.625101119E-1
2.508232500E0,5.458548889E0,-1.158530823E1,-1.539398804E0,2.508232500E0,4.483402669E-1,-8.906527162E-1,5.369404331E-2
2.518177500E0,5.717959442E0,-1.202943466E1,-1.677711182E0,2.518177500E0,3.999647498E-1,-6.790542006E-1,-8.254528791E-2
2.528122500E0,5.092709656E0,-1.257759476E1,-1.301094360E0,2.528122500E0,4.154329300E-1,-4.928282797E-1,-2.985332608E-1
2.538067500E0,3.599414978E0,-1.337842941E1,-1.098715210E0,2.538067500E0,4.688964188E-1,-4.209170938E-1,-5.159774423E-1
2.548012500E0,1.415157166E0,-1.413076492E1,-1.592987366E0,2.548012500E0,4.065541029E-1,-4.053214192E-1,-5.799737573E-1
2.557958500E0,-3.198847961E-1,-1.399754196E1,-1.944007416E0,2.557958500E0,2.560676336E-1,-4.640502334E-1,-5.553756952E-1
2.567903500E0,-8.327183533E-1,-1.338771011E1,-1.903890839E0,2.567903500E0,1.218003780E-1,-6.140882969E-1,-5.604547262E-1
2.577848500E0,-9.472302246E-1,-1.323263260E1,-2.046544189E0,2.577848500E0,-7.535156608E-2,-8.076401949E-1,-5.512021184E-1
2.587793500E0,-9.168434143E-1,-1.329834595E1,-1.574725342E0,2.587793500E0,-3.256849945E-1,-1.057596684E0,-5.359283686E-1
2.597738500E0,-3.567082214E-1,-1.353335724E1,-2.294728088E-1,2.597738500E0,-5.736646652E-1,-1.208336353E0,-5.643389821E-1
2.607683500E0,-2.430944824E-1,-1.322529785E1,7.336244202E-1,2.607683500E0,-8.217473626E-1,-1.220304966E0,-6.196430326E-1
2.617629500E0,-6.668632507E-1,-1.225157272E1,1.144819336E0,2.617629500E0,-1.040996194E0,-1.124455333E0,-6.968541741E-1
2.627574500E0,-1.523831177E0,-1.130045059E1,1.294657745E0,2.627574500E0,-1.307257771E0,-8.988447785E-1,-8.067315221E-1
2.637519500E0,-2.180365906E0,-1.110929810E1,6.724017334E-1,2.637519500E0,-1.626807332E0,-5.980897546E-1,-9.141453505E-1
2.647464500E0,-3.072810059E0,-1.138472534E1,-3.152444458E-1,2.647464500E0,-1.927226663E0,-1.790045947E-1,-9.627014995E-1
2.657409500E0,-4.245770874E0,-1.206775497E1,-6.010002136E-1,2.657409500E0,-2.118739367E0,3.181945086E-1,-1.032076836E0
2.667354500E0,-4.681514740E0,-1.286245239E1,-2.637515259E-1,2.667354500E0,-2.242699146E0,7.722581625E-1,-1.180780053E0
2.677299500E0,-5.535937958E0,-1.332678680E1,7.315287781E-1,2.677299500E0,-2.239197016E0,1.122835636E0,-1.260233879E0
2.687245500E0,-6.969357147E0,-1.337558533E1,1.800306244E0,2.687245500E0,-2.045995951E0,1.364334106E0,-1.183869720E0
2.697190500E0,-8.288414154E0,-1.305405396E1,2.551743622E0,2.697190500E0,-1.695108771E0,1.511912346E0,-9.416516423E-1
2.707135500E0,-8.927734680E0,-1.233914062E1,2.076931000E0,2.707135500E0,-1.330609560E0,1.321933389E0,-6.096539497E-1
2.717080500E0,-8.273145905E0,-1.097412918E1,4.384382629E-1,2.717080500E0,-1.119106650E0,7.633955479E-1,-2.717142105E-1
2.727025500E0,-6.601122894E0,-9.690099335E0,-7.228468323E-1,2.727025500E0,-1.040579438E0,1.759531200E-1,7.493212074E-2
2.736970500E0,-3.999832306E0,-9.068292389E0,-1.037043457E0,2.736970500E0,-1.029765964E0,-1.953267008E-1,3.239323497E-1
2.746915500E0,-1.027313690E0,-8.707692261E0,-1.721270599E0,2.746915500E0,-1.134339571E0,-2.080171853E-1,4.533705115E-1
2.756861500E0,1.522633667E0,-8.575367432E0,-3.134631500E0,2.756861500E0,-1.340414166E0,-2.614545822E-1,3.883699477E-1
2.766806500E0,3.888164520E0,-8.871601410E0,-4.110601959E0,2.766806500E0,-1.579343557E0,-2.668171525E-1,1.757086813E-1
2.776751500E0,4.471351776E0,-9.588011627E0,-3.787873077E0,2.776751500E0,-1.659136415E0,-3.173548877E-1,-5.638047308E-2
2.786696500E0,3.972289581E0,-1.035920792E1,-3.366349640E0,2.786696500E0,-1.663235784E0,-3.438730836E-1,-1.837056577E-1
2.796641500E0,3.504362640E0,-1.002585114E1,-3.023412781E0,2.796641500E0,-1.603873134E0,-4.040573239E-1,-2.974670827E-1
2.806586500E0,3.470233612E0,-9.031918030E0,-2.411335602E0,2.806586500E0,-1.536568761E0,-4.940207899E-1,-4.461370111E-1
2.816531500E0,2.992726593E0,-8.355325012E0,-1.821262665E0,2.816531500E0,-1.449338555E0,-6.446588039E-1,-5.669598579E-1
2.826477500E0,2.222129059E0,-7.844437408E0,-1.444346466E0,2.826477500E0,-1.357512355E0,-8.765736818E-1,-6.950413585E-1
2.836422500E0,1.645528107E0,-7.156767426E0,-1.379830627E0,2.836422500E0,-1.257222295E0,-1.079236984E0,-7.955532670E-1
2.846367500E0,9.312135315E-1,-6.773863678E0,-1.002165985E0,2.846367500E0,-1.130935073E0,-1.159544587E0,-8.503105044E-1
2.856312500E0,4.372407532E-1,-6.247707825E0,-6.587800598E-1,2.856312500E0,-9.851706028E-1,-1.107132792E0,-8.925583363E-1
2.866257500E0,-1.122665405E-1,-5.812562714E0,-6.420149231E-1,2.866257500E0,-8.177587986E-1,-1.035907745E0,-8.868396878E-1
2.876202500E0,-4.870870972E-1,-5.456453247E0,-7.253915405E-1,2.876202500E0,-6.295827627E-1,-1.023069978E0,-8.931540251E-1
2.886147500E0,-5.369334412E-1,-4.921316071E0,-6.541397095E-1,2.886147500E0,-3.915993571E-1,-1.084193945E0,-9.137215018E-1
2.896092500E0,-7.815248108E-1,-4.792733459E0,-4.240681458E-1,2.896092500E0,-1.119866297E-1,-1.174156904E0,-8.922188282E-1
2.906038500E0,-9.439370728E-1,-4.450994110E0,-2.769241333E-1,2.906038500E0,1.735464185E-1,-1.242084742E0,-8.804414272E-1
2.915983500E0,-1.462907867E0,-4.234544220E0,-2.227368164E-1,2.915983500E0,4.278798699E-1,-1.247692823E0,-7.705410123E-1
2.925928500E0,-1.971550140E0,-4.347259827E0,-5.514532471E-1,2.925928500E0,6.635538936E-1,-1.219851732E0,-5.701236725E-1
2.935873500E0,-2.016756134E0,-4.345613251E0,-1.189725952E0,2.935873500E0,8.737995625E-1,-1.161958575E0,-3.721589446E-1
2.945818500E0,-1.791773987E0,-4.285438385E0,-1.869462433E0,2.945818500E0,1.000389099E0,-1.083931446E0,-2.167604417E-1
2.955763500E0,-1.425934753E0,-4.327800293E0,-2.485880585E0,2.955763500E0,1.000133991E0,-1.012661219E0,-1.370869279E-1
2.965708500E0,-7.631130981E-1,-4.298161926E0,-3.217109985E0,2.965708500E0,8.964536190E-1,-9.892010689E-1,-9.720745683E-2
2.975654500E0,-6.441105652E-1,-5.040468292E0,-3.508104858E0,2.975654500E0,8.281280994E-1,-8.713447452E-1,-5.657297559E-3
2.985599500E0,-8.637039185E-1,-6.302344208E0,-3.353775787E0,2.985599500E0,8.353129029E-1,-6.866074204E-1,1.239548549E-1
2.995544500E0,-8.226892090E-1,-7.717052307E0,-3.753444672E0,2.995544500E0,8.757743239E-1,-7.233816385E-1,2.626645267E-1
3.005489500E0,-8.232879639E-3,-9.446256409E0,-4.639452209E0,3.005489500E0,9.476364255E-1,-8.794550300E-1,3.870320618E-1
3.015434500E0,-2.643502808E-1,-1.158845169E1,-5.382207642E0,3.015434500E0,9.373593330E-1,-1.075304627E0,4.705146849E-1
3.025379500E0,-5.252577209E-1,-1.317515213E1,-6.457421722E0,3.025379500E0,7.639079690E-1,-1.244981289E0,4.758374393E-1
3.035324500E0,-4.933740234E-1,-1.380384476E1,-7.218289490E0,3.035324500E0,4.501298070E-1,-1.324931264E0,4.355816245E-1
3.045270500E0,-2.198927307E-1,-1.401804932E1,-7.972271576E0,3.045270500E0,5.378637463E-2,-1.326041102E0,3.194973469E-1
3.055215500E0,-1.400188293E0,-1.443702805E1,-6.064189453E0,3.055215500E0,-2.412117124E-1,-1.197963595E0,2.766689062E-1
3.065160500E0,-2.827320557E0,-1.431802551E1,-4.797373810E0,3.065160500E0,-3.556949198E-1,-1.012264967E0,3.069595993E-1
3.075105500E0,-2.659519501E0,-1.312829956E1,-5.056634674E0,3.075105500E0,-4.010839760E-1,-6.979147792E-1,2.647378445E-1
3.085050500E0,-8.620573425E-1,-1.174562485E1,-6.335425415E0,3.085050500E0,-4.855676293E-1,-1.993281841E-1,7.849979401E-2
3.094995500E0,1.330583038E0,-1.021625519E1,-7.608078918E0,3.094995500E0,-6.032410264E-1,3.536444604E-1,-1.863225400E-1
3.104940500E0,2.106419678E0,-8.936566315E0,-8.301736450E0,3.104940500E0,-5.933682919E-1,8.243509531E-1,-4.037192762E-1
3.114885500E0,8.479866028E-1,-8.554860077E0,-8.217312012E0,3.114885500E0,-6.472869515E-1,1.143053293E0,-5.027856231E-1
3.124831500E0,-1.350491638E0,-9.704918518E0,-7.073690186E0,3.124831500E0,-8.707103133E-1,1.110404849E0,-4.759498537E-1
3.134776500E0,-2.583627319E0,-1.245649658E1,-5.507347412E0,3.134776500E0,-9.749331474E-1,6.144070625E-1,-2.961832881E-1
3.144721500E0,-1.814975739E0,-1.617102219E1,-4.095034332E0,3.144721500E0,-9.183016419E-1,2.425015420E-1,-1.302086562E-1
3.154666500E0,-1.246607666E0,-1.978211288E1,-1.325643311E0,3.154666500E0,-5.016423464E-1,1.645524204E-1,3.570974618E-2
3.164611500E0,-2.875670013E0,-2.191293182E1,2.021546173E0,3.164611500E0,6.203427911E-2,9.683579206E-2,3.293563128E-1
3.174556500E0,-4.362528076E0,-1.903830963E1,2.168839874E0,3.174556500E0,2.812753022E-1,-1.038139537E-1,4.516670406E-1
3.184501500E0,-3.682342529E0,-1.169637726E1,6.637197876E-1,3.184501500E0,4.361869097E-1,-1.808864772E-1,4.738276899E-1
3.194447500E0,-3.988755341E0,-6.706952820E0,1.325343933E0,3.194447500E0,7.077792287E-1,2.366018444E-1,5.605974793E-1
3.204392500E0,-3.446283417E0,-4.309987335E0,1.693578186E0,3.204392500E0,9.683906436E-1,7.715958357E-1,6.317870617E-1
3.214337500E0,-2.247576141E0,-3.608695679E0,8.140072632E-1,3.214337500E0,1.001932859E0,1.255547643E0,7.277812362E-1
3.224282500E0,-1.962568817E0,-4.680317230E0,6.756948853E-1,3.224282500E0,9.140995145E-1,1.566774607E0,8.906446099E-1
3.234227500E0,-1.004561005E0,-5.859864349E0,7.256909180E-1,3.234227500E0,8.580372930E-1,1.516309857E0,9.478706121E-1
3.244172500E0,5.701643372E-1,-6.669830017E0,7.072792053E-1,3.244172500E0,8.724283576E-1,1.198879242E0,9.845969081E-1
3.254117375E0,1.411714325E0,-7.825127563E0,7.878117371E-1,3.254117375E0,8.861367106E-1,6.660258174E-1,1.080076933E0
3.264062375E0,1.788630524E0,-8.790021057E0,1.025667114E0,3.264062375E0,8.880395293E-1,2.401857451E-2,1.181468248E0
3.274008375E0,1.817520447E0,-9.687255249E0,1.534758453E0,3.274008375E0,9.519482255E-1,-4.908719063E-1,1.221174598E0
3.283953375E0,2.037562866E0,-1.066023193E1,2.084415436E0,3.283953375E0,1.112472296E0,-6.528061032E-1,1.078853607E0
3.293898375E0,2.410886536E0,-1.131796417E1,2.165696411E0,3.293898375E0,1.319369555E0,-5.293172002E-1,8.142161369E-1
3.303843375E0,1.861528931E0,-1.164563278E1,2.006577301E0,3.303843375E0,1.526581526E0,-1.823160350E-1,5.361291766E-1
3.313788375E0,5.504054260E-1,-1.117605927E1,1.326541443E0,3.313788375E0,1.693221092E0,3.963643610E-1,2.806861699E-1
3.323733375E0,-9.511221313E-1,-9.790390778E0,-1.745370483E-1,3.323733375E0,1.759141803E0,9.386108518E-1,5.713244528E-2
3.333678375E0,-2.151326294E0,-8.188272400E0,-1.980381775E0,3.333678375E0,1.670023084E0,1.284697652E0,-7.834335417E-2
3.343624375E0,-3.235521698E0,-7.006330261E0,-2.917133789E0,3.343624375E0,1.483115911E0,1.531260848E0,-7.856997102E-2
3.353569375E0,-3.976630554E0,-6.460714874E0,-2.646047516E0,3.353569375E0,1.298895717E0,1.791946769E0,3.576513007E-2
3.363514375E0,-4.172124023E0,-6.231691132E0,-1.714384918E0,3.363514375E0,1.169729948E0,1.949178338E0,2.198463976E-1
3.373459375E0,-3.696113892E0,-6.134842529E0,-5.306465149E-1,3.373459375E0,1.084483504E0,1.920916796E0,3.980227709E-1
3.383404375E0,-2.365231476E0,-6.092630310E0,1.440005493E-1,3.383404375E0,9.758815169E-1,1.543314695E0,4.590353072E-1
3.393349375E0,-6.066883850E-1,-6.421646118E0,4.162843323E-1,3.393349375E0,8.896360993E-1,1.024611115E0,4.020066559E-1
3.403294375E0,4.465214539E-1,-7.407046967E0,1.441801758E0,3.403294375E0,9.524700642E-1,6.856443882E-1,3.354049623E-1
3.413239375E0,1.120569763E0,-8.545279999E0,2.350112915E0,3.413239375E0,1.105387211E0,5.515789986E-1,2.417818010E-1
3.423185375E0,1.636846161E0,-9.646539917E0,1.836530914E0,3.423185375E0,1.205843925E0,5.641746521E-1,1.036997139E-1
3.433130375E0,1.976190491E0,-1.047731232E1,4.869374084E-1,3.433130375E0,1.241662383E0,6.028376222E-1,-4.670710117E-2
3.443075375E0,1.689386902E0,-1.110450806E1,-5.996530151E-1,3.443075375E0,1.179466367E0,7.331421375E-1,-1.163550466E-1
3.453020375E0,8.798703003E-1,-1.144639709E1,-1.635948029E0,3.453020375E0,1.009748936E0,8.952549100E-1,-1.103304476E-1
3.462965375E0,1.425036621E-1,-1.150297943E1,-2.463726654E0,3.462965375E0,7.714242339E-1,1.041104555E0,-5.002706125E-2
3.472910375E0,-3.746708679E-1,-1.149070496E1,-2.684367828E0,3.472910375E0,5.597116947E-1,1.156594157E0,3.890733793E-2
3.482855375E0,-5.400769043E-1,-1.107801315E1,-2.223625946E0,3.482855375E0,4.286982417E-1,1.194687963E0,1.097621620E-1
3.492800375E0,-3.131488037E-1,-1.011880783E1,-1.700164490E0,3.492800375E0,3.550866246E-1,1.171906948E0,1.682944447E-1
3.502746375E0,1.360670471E-1,-9.110654297E0,-1.556463318E0,3.502746375E0,2.795524299E-1,1.091804147E0,2.155948430E-1
3.512691375E0,6.027964783E-1,-8.429121552E0,-1.788929901E0,3.512691375E0,1.710873842E-1,9.412717819E-1,2.650991082E-1
3.522636375E0,9.315129089E-1,-8.140521698E0,-2.110910339E0,3.522636375E0,8.312640339E-2,7.520500422E-1,3.329372704E-1
3.532581375E0,1.475781097E0,-8.024962006E0,-2.200424194E0,3.532581375E0,2.858140692E-2,5.311186910E-1,3.852092624E-1
3.542526375E0,2.140249329E0,-8.147257690E0,-2.324216766E0,3.542526375E0,2.351601375E-3,3.149910271E-1,4.103477597E-1
3.552471375E0,2.525548096E0,-8.505612488E0,-2.154619446E0,3.552471375E0,-1.586015895E-2,1.523903906E-1,4.100042284E-1
3.562416375E0,2.723586273E0,-8.779692535E0,-1.737886047E0,3.562416375E0,-1.288841106E-2,1.430474501E-2,3.677141964E-1
3.572361375E0,2.734363861E0,-8.767418060E0,-1.150208130E0,3.572361375E0,-1.175097562E-2,-1.099716723E-1,3.091979027E-1
3.582307375E0,2.559078369E0,-8.691076813E0,-5.031037903E-1,3.582307375E0,8.728096634E-2,-2.508856654E-1,2.416188866E-1
3.592252375E0,2.196831665E0,-8.642577667E0,-3.140469360E-1,3.592252375E0,1.787917167E-1,-3.615719676E-1,1.562725753E-1
3.602197375E0,1.470691681E0,-8.659492493E0,-3.793112183E-1,3.602197375E0,2.308986634E-1,-4.044438303E-1,9.641680866E-2
3.612142375E0,7.291337585E-1,-8.885223083E0,-6.610253906E-1,3.612142375E0,2.082061321E-1,-4.236989915E-1,9.734172374E-2
3.622087375E0,3.743714905E-1,-9.339528351E0,-3.847000122E-2,3.622087375E0,2.545513809E-1,-2.986360788E-1,1.431521624E-1
3.632032375E0,5.523513794E-1,-9.962083740E0,4.108955383E-1,3.632032375E0,3.428394198E-1,-4.150370061E-1,1.603806913E-1
3.641977375E0,1.551074524E0,-1.077294754E1,-4.391867065E-1,3.641977375E0,3.761598766E-1,-7.082335949E-1,1.208265349E-1
3.651922375E0,2.649340668E0,-1.168904251E1,-9.110055542E-1,3.651922375E0,3.838279247E-1,-8.737525344E-1,7.719143480E-2
3.661868375E0,3.325334930E0,-1.260738281E1,-9.777667236E-1,3.661868375E0,3.849602640E-1,-7.602143884E-1,2.474899404E-2
3.671813375E0,3.344046021E0,-1.315614166E1,-9.862989807E-1,3.671813375E0,4.065289497E-1,-4.787264764E-1,-5.086560547E-2
3.681758375E0,2.605032806E0,-1.335417984E1,-1.092278595E0,3.681758375E0,4.189654887E-1,-2.481746823E-1,-1.597783864E-1
3.691703375E0,1.730251923E0,-1.344129868E1,-1.398990784E0,3.691703375E0,3.870704174E-1,-1.837778389E-1,-3.124377131E-1
3.701648375E0,6.333329773E-1,-1.362811020E1,-1.669029236E0,3.701648375E0,3.336560130E-1,-1.937617213E-1,-4.128049314E-1
3.711593375E0,-7.042854309E-1,-1.354623047E1,-2.087409210E0,3.711593375E0,1.942733526E-1,-1.132280007E-1,-4.103580117E-1
3.721538375E0,-1.265767822E0,-1.300271072E1,-2.111808472E0,3.721538375E0,2.206162550E-2,-4.883068800E-2,-4.108004868E-1
3.731483375E0,-9.970765686E-1,-1.264839752E1,-1.919308777E0,3.731483375E0,-1.288914084E-1,-1.613492519E-1,-4.560412169E-1
3.741428375E0,-1.020727386E0,-1.252430557E1,-1.980381775E0,3.741428375E0,-3.687058687E-1,-4.998125136E-1,-5.006064177E-1
3.751374375E0,-1.004561005E0,-1.257819351E1,-1.062191162E0,3.751374375E0,-6.346731186E-1,-7.783762217E-1,-5.372501612E-1
3.761319375E0,-6.875202942E-1,-1.237087463E1,6.156697083E-1,3.761319375E0,-8.522447348E-1,-9.025133848E-1,-6.072954535E-1
3.771264375E0,-4.330494690E-1,-1.192031158E1,1.465153198E0,3.771264375E0,-1.032051802E0,-9.728469253E-1,-7.182278633E-1
3.781209375E0,-8.689430237E-1,-1.165551224E1,1.714384918E0,3.781209375E0,-1.185651660E0,-8.873524070E-1,-8.502191901E-1
3.791154375E0,-1.829794922E0,-1.117605927E1,1.423090668E0,3.791154375E0,-1.409438968E0,-6.976655722E-1,-9.290152192E-1
3.801099375E0,-2.465073853E0,-1.057565781E1,3.357518005E-1,3.801099375E0,-1.732544780E0,-4.396138787E-1,-1.000060558E0
3.811044375E0,-3.622766418E0,-1.092293564E1,-1.024918671E0,3.811044375E0,-2.063974380E0,-6.135047600E-2,-1.018893361E0
3.820989375E0,-4.453389130E0,-1.254705826E1,-1.348395996E0,3.820989375E0,-2.222453833E0,3.189261556E-1,-1.103450656E0
3.830935375E0,-4.828059998E0,-1.318862411E1,-1.059796143E-1,3.830935375E0,-2.211413860E0,7.498447895E-1,-1.199645042E0
3.840880375E0,-6.131699066E0,-1.326361816E1,1.505120087E0,3.840880375E0,-2.093087673E0,1.289551973E0,-1.155166507E0
3.850825375E0,-7.697592773E0,-1.352542374E1,2.586621094E0,3.850825375E0,-1.850172520E0,1.732375741E0,-9.520725012E-1
3.860770375E0,-8.558003540E0,-1.321137680E1,2.422711945E0,3.860770375E0,-1.535116673E0,1.821453094E0,-7.049402595E-1
3.870715375E0,-8.249195709E0,-1.191058182E1,1.253493347E0,3.870715375E0,-1.290312767E0,1.471175551E0,-4.801559150E-1
3.880660375E0,-6.943311310E0,-1.023376877E1,1.682501221E-1,3.880660375E0,-1.131990075E0,9.088233113E-1,-2.210897356E-1
3.890605375E0,-5.239703979E0,-9.284143524E0,-2.493814087E-1,3.890605375E0,-1.027517200E0,4.609635174E-1,8.634211123E-2
3.900550375E0,-2.849324799E0,-9.069938965E0,-7.985893250E-1,3.900550375E0,-9.623529911E-1,1.398467124E-1,2.790942192E-1
3.910495375E0,-4.194277954E-1,-8.870403900E0,-2.083517303E0,3.910495375E0,-1.079982162E0,1.855755784E-2,3.528712392E-1
3.920441375E0,1.301693115E0,-9.217981110E0,-3.488345947E0,3.920441375E0,-1.313105822E0,-1.311790496E-1,2.896837294E-1
3.930386375E0,3.222199402E0,-9.593699799E0,-4.087549896E0,3.930386375E0,-1.505078912E0,-3.355324566E-1,9.477362782E-2
3.940331375E0,4.297563171E0,-9.914782104E0,-3.760030975E0,3.940331375E0,-1.610900879E0,-4.701002240E-1,-1.790131629E-1
3.950276375E0,4.084855499E0,-9.854607239E0,-2.908152466E0,3.950276375E0,-1.591728449E0,-4.444417059E-1,-3.391735256E-1
3.960221375E0,3.234174500E0,-9.283544769E0,-2.350262604E0,3.960221375E0,-1.483169198E0,-4.793853462E-1,-4.210112095E-1
3.970166375E0,2.693349152E0,-8.487500153E0,-2.278112640E0,3.970166375E0,-1.382350206E0,-5.939313769E-1,-4.603340924E-1
3.980111375E0,1.868115234E0,-8.112230530E0,-1.715283051E0,3.980111375E0,-1.273831010E0,-6.077092290E-1,-4.832408428E-1
3.990056375E0,1.475781097E0,-7.445666656E0,-1.390458527E0,3.990056375E0,-1.143646955E0,-6.865427494E-1,-5.898448229E-1
4.000002375E0,1.216220856E0,-6.666536865E0,-1.433568878E0,4.000002375E0,-1.014334917E0,-7.906816602E-1,-7.123948932E-1
4.009947375E0,5.322930908E-1,-6.290369110E0,-1.302142181E0,4.009947375E0,-8.681186438E-1,-8.658962846E-1,-7.981297374E-1
4.019892375E0,3.382965088E-2,-6.016438751E0,-1.148411865E0,4.019892375E0,-7.197471261E-1,-8.810631633E-1,-8.316124678E-1
4.029837375E0,-4.400848389E-1,-5.920637970E0,-9.942324829E-1,4.029837375E0,-5.536135435E-1,-9.001588821E-1,-7.829709053E-1
4.039782375E0,-4.858895874E-1,-5.722450104E0,-9.789642334E-1,4.039782375E0,-3.583707511E-1,-9.680343270E-1,-7.445309162E-1
4.049727375E0,-4.070036316E-1,-5.347330170E0,-9.309141541E-1,4.049727375E0,-1.435913295E-1,-1.018721223E0,-7.220676541E-1
4.059672375E0,-5.020559692E-1,-5.090015259E0,-9.595046997E-1,4.059672375E0,6.809721142E-2,-1.108212471E0,-6.886984706E-1
4.069617375E0,-8.900491333E-1,-4.993466034E0,-1.021326141E0,4.069617375E0,2.762120366E-1,-1.188170910E0,-5.960665345E-1
4.079562375E0,-1.417701874E0,-4.796775055E0,-1.106499023E0,4.079562375E0,4.837765396E-1,-1.227066875E0,-4.657309949E-1
4.089508375E0,-1.669777679E0,-4.606969757E0,-1.475631409E0,4.089508375E0,6.725928187E-1,-1.229688525E0,-3.302871585E-1
4.099453375E0,-1.652713165E0,-4.411625977E0,-1.893113251E0,4.099453375E0,7.991960645E-1,-1.186961055E0,-2.296597064E-1
4.109398375E0,-1.376088409E0,-4.155059509E0,-2.198927307E0,4.109398375E0,8.258851767E-1,-1.130123615E0,-1.385492235E-1
4.119343375E0,-9.898915100E-1,-4.214186554E0,-2.647394714E0,4.119343375E0,7.875807881E-1,-1.115699291E0,-5.807215720E-2
4.129288375E0,-6.309379578E-1,-4.678670654E0,-2.919528809E0,4.129288375E0,7.521151900E-1,-1.064433336E0,2.033343352E-2
4.139233375E0,-1.700463867E-1,-5.198389893E0,-2.944526825E0,4.139233375E0,7.767543197E-1,-1.009632587E0,8.382026106E-2
4.149178375E0,7.888595581E-2,-6.126909027E0,-2.950813751E0,4.149178375E0,8.246616125E-1,-9.216979146E-1,1.640621126E-1
4.159123375E0,4.340972900E-2,-7.474406891E0,-3.005300446E0,4.159123375E0,8.746737838E-1,-8.582661748E-1,2.485908270E-1
4.169068375E0,1.163081360E-1,-8.809181213E0,-3.294349365E0,4.169068375E0,9.032772183E-1,-8.200612664E-1,3.099732399E-1
4.179014375E0,4.108955383E-1,-1.074735077E1,-4.760400696E0,4.179014375E0,8.588784933E-1,-1.196600914E0,2.975041270E-1
4.188959375E0,9.309141541E-1,-1.312814987E1,-6.641538849E0,4.188959375E0,7.177042961E-1,-1.612478018E0,2.848330736E-1
4.198904375E0,1.104702759E-1,-1.475616440E1,-6.247109070E0,4.198904375E0,5.618901849E-1,-1.515716434E0,3.066876233E-1
4.208849375E0,-1.080902252E0,-1.571028030E1,-5.622008972E0,4.208849375E0,3.480300605E-1,-1.263509393E0,2.766948342E-1
4.218794375E0,-1.917063446E0,-1.630843643E1,-5.591322784E0,4.218794375E0,7.830829173E-2,-1.130948424E0,1.986842006E-1
4.228739375E0,-2.189347229E0,-1.609677658E1,-5.830375671E0,4.228739375E0,-1.007629260E-1,-8.983833790E-1,1.005813256E-1
4.238684375E0,-2.055675201E0,-1.501467682E1,-5.804180145E0,4.238684375E0,-1.351026595E-1,-3.120606840E-1,-4.626135156E-2
4.248629375E0,-1.568139038E0,-1.320793396E1,-6.643784180E0,4.248629375E0,-1.419973224E-1,4.158734083E-1,-2.543711364E-1
4.258574375E0,-1.234632568E0,-1.140149048E1,-8.602910156E0,4.258574375E0,-2.960350215E-1,9.507998824E-1,-4.043046832E-1
4.268520375E0,-1.223555603E0,-9.865534515E0,-9.715396729E0,4.268520375E0,-4.238014817E-1,1.161058068E0,-4.460563958E-1
4.278465375E0,-1.414857788E0,-8.340805206E0,-9.297765198E0,4.278465375E0,-3.557582796E-1,1.067973256E0,-3.238485456E-1
4.288410375E0,-1.084045715E0,-6.589297485E0,-7.921826477E0,4.288410375E0,-2.666036487E-1,1.015028834E0,-1.411269307E-1
4.298355375E0,-5.087919617E-1,-6.004912720E0,-6.672823792E0,4.298355375E0,-5.436790586E-1,8.093168736E-1,3.326188773E-2
4.308300375E0,-2.341131592E-1,-7.291187897E0,-5.946683807E0,4.308300375E0,-5.914342999E-1,2.153856158E-1,2.296620309E-1
4.318245375E0,4.712200928E-1,-9.364526367E0,-3.815565491E0,4.318245375E0,-2.384664267E-1,-1.845615804E-1,4.338672161E-1
4.328190375E0,7.098239136E-1,-1.180026123E1,-1.613794098E0,4.328190375E0,1.373173147E-1,-2.416256666E-1,5.591955781E-1
4.338135375E0,-7.587721252E-1,-1.517873566E1,-1.273851013E-1,4.338135375E0,5.709686279E-1,-1.893437058E-1,7.049690485E-1
4.348080375E0,-3.537743225E0,-1.840078537E1,2.379002838E0,4.348080375E0,1.090120792E0,-1.176958904E-1,9.162405729E-1
4.358026375E0,-5.240901489E0,-1.878024628E1,2.821782074E0,4.358026375E0,1.347068191E0,-9.857945144E-2,1.003297806E0
4.367971375E0,-4.770729218E0,-1.678115341E1,7.152127075E-1,4.367971375E0,1.280617714E0,-1.912087202E-1,9.275510907E-1
4.377916375E0,-3.138074341E0,-1.297696426E1,-6.809339905E-1,4.377916375E0,1.007564545E0,-7.994285971E-2,8.409480453E-1
4.387861375E0,-2.271825714E0,-9.120833130E0,-3.519181824E-1,4.387861375E0,7.095001340E-1,3.051723242E-1,8.959522247E-1
4.397806375E0,-1.735491028E0,-6.611750793E0,4.077520752E-1,4.397806375E0,4.723818302E-1,6.838371158E-1,9.801312089E-1
4.407751375E0,-3.207829285E-1,-4.949906616E0,6.405180359E-1,4.407751375E0,3.109793365E-1,7.693570852E-1,9.894155264E-1
4.417696375E0,1.159189453E0,-3.803889771E0,1.395398254E0,4.417696375E0,2.967256308E-1,6.691182256E-1,9.765317440E-1
4.427641375E0,1.943708038E0,-3.687731323E0,3.428620148E0,4.427641375E0,4.532337487E-1,7.039292455E-1,9.697401524E-1
4.437586375E0,1.900597687E0,-4.098776550E0,4.949008484E0,4.437586375E0,6.892934442E-1,6.919180155E-1,9.888076782E-1
4.447531375E0,1.507814484E0,-5.175337830E0,4.536166992E0,4.447531375E0,9.090390801E-1,3.988835216E-1,9.964280128E-1
4.457477375E0,1.543440399E0,-6.426585846E0,3.568878479E0,4.457477375E0,1.123916864E0,-7.679642737E-2,9.454035759E-1
4.467422375E0,1.870510254E0,-7.250622253E0,2.751727753E0,4.467422375E0,1.287407994E0,-4.771124125E-1,8.461297154E-1
4.477367375E0,2.159259796E0,-8.309370575E0,1.844464417E0,4.477367375E0,1.391480684E0,-6.651433706E-1,6.751639843E-1
4.487312375E0,2.198777618E0,-9.843979340E0,1.134191437E0,4.487312375E0,1.478577733E0,-6.169095635E-1,3.871007860E-1
4.497257375E0,1.453776855E0,-1.153471344E1,6.568341064E-1,4.497257375E0,1.486660361E0,-3.828554451E-1,1.795370877E-2
4.507202375E0,7.349716187E-2,-1.222417969E1,-2.646496582E-1,4.507202375E0,1.428510308E0,-2.276570499E-1,-3.688219786E-1
4.517147375E0,-1.803749084E0,-1.159458893E1,-1.329984283E0,4.517147375E0,1.281436682E0,-2.935083956E-2,-6.035695672E-1
4.527092375E0,-3.983965302E0,-1.040606049E1,-1.418001251E0,4.527092375E0,1.102552652E0,5.040086508E-1,-5.463355780E-1
4.537037375E0,-5.970035248E0,-9.414372711E0,-8.512797546E-1,4.537037375E0,9.464741349E-1,1.182659864E0,-3.281893134E-1
4.546983375E0,-6.347101135E0,-8.295748901E0,-7.551795959E-1,4.546983375E0,7.662369609E-1,1.545354247E0,-9.971673042E-2
4.556928375E0,-5.352718964E0,-7.434290314E0,-3.638932800E-1,4.556928375E0,6.158538461E-1,1.594639301E0,5.539954081E-2
4.566873375E0,-4.316573639E0,-7.673193512E0,7.674540710E-1,4.566873375E0,6.031931639E-1,1.575232387E0,1.549828649E-1
4.576818375E0,-3.070564728E0,-8.818162537E0,1.672472076E0,4.576818375E0,6.973505020E-1,1.429919839E0,1.856357008E-1
4.586763375E0,-1.154698792E0,-1.020577698E1,6.888674927E-1,4.586763375E0,7.336105108E-1,1.117147565E0,1.150997505E-1
4.596708375E0,8.237370300E-1,-1.114836685E1,-7.050338745E-1,4.596708375E0,6.826708317E-1,1.012492776E0,1.399998670E-3
4.606653375E0,2.456092529E0,-1.137828873E1,-1.520987091E0,4.606653375E0,5.812970996E-1,1.180243969E0,-1.765374988E-1
4.616598375E0,3.405268707E0,-1.077564194E1,-2.050585785E0,4.616598375E0,4.185672998E-1,1.385367036E0,-3.501968086E-1
4.626543375E0,2.948119354E0,-1.001282822E1,-1.977537689E0,4.626543375E0,2.974781692E-1,1.491495609E0,-4.216035903E-1
4.636488375E0,1.523232422E0,-9.108858032E0,-1.037791901E0,4.636488375E0,2.962006032E-1,1.396091104E0,-3.980744779E-1
4.646434375E0,5.218148804E-1,-8.206384735E0,-3.381468201E-1,4.646434375E0,3.667285740E-1,1.199520469E0,-3.436197639E-1
4.656379375E0,-7.379653931E-2,-7.841144257E0,1.932481384E-1,4.656379375E0,4.813796282E-1,1.043930411E0,-2.863293588E-1
4.666324375E0,-4.043092346E-1,-7.654781799E0,2.977308655E-1,4.666324375E0,5.869808793E-1,9.486270547E-1,-2.403011620E-1
4.676269375E0,-6.625222778E-1,-7.542515259E0,9.580078125E-3,4.676269375E0,6.648449898E-1,9.015784860E-1,-1.622040272E-1
4.686214375E0,-1.222807159E0,-7.762407990E0,-2.984793091E-1,4.686214375E0,7.320400476E-1,8.823017478E-1,-1.241666172E-2
4.696159375E0,-1.742376709E0,-8.239465942E0,-6.694079590E-1,4.696159375E0,7.645933628E-1,8.677557707E-1,1.533427238E-1
4.706104375E0,-1.540446625E0,-8.668174438E0,-1.338067474E0,4.706104375E0,7.280151248E-1,8.520588875E-1,2.912156284E-1
4.716049375E0,-9.852511597E-1,-9.251212006E0,-2.258054352E0,4.716049375E0,6.276043653E-1,8.431343436E-1,3.907651901E-1
4.725994375E0,-4.061054993E-1,-9.971963196E0,-2.836451569E0,4.725994375E0,4.521180093E-1,8.787655830E-1,4.761210978E-1
4.735939375E0,1.585203552E-1,-1.051503387E1,-3.078198853E0,4.735939375E0,2.287521958E-1,9.325163364E-1,5.540612936E-1
4.745885375E0,6.186634827E-1,-1.067939209E1,-2.673440552E0,4.745885375E0,5.685687438E-2,9.648537636E-1,6.291014552E-1
4.755830375E0,1.051114197E0,-1.040800644E1,-1.684896240E0,4.755830375E0,-2.646075934E-2,9.261654019E-1,6.977965236E-1
4.765775375E0,1.604663086E0,-9.869127045E0,-7.378157043E-1,4.765775375E0,1.484247204E-2,7.811051607E-1,7.029619813E-1
4.775720375E0,2.092199249E0,-9.539961548E0,-3.544628906E-1,4.775720375E0,1.090740412E-1,6.180703640E-1,6.152458787E-1
4.785665375E0,2.139201508E0,-9.273066559E0,-8.125103760E-1,4.785665375E0,1.719166636E-1,4.111978710E-1,5.202687383E-1
4.795610375E0,1.989213409E0,-8.774154053E0,-1.318757629E0,4.795610375E0,1.948664486E-1,3.565229177E-1,4.712724686E-1
4.805555375E0,1.854343872E0,-8.701255646E0,-1.153052216E0,4.805555375E0,2.079388350E-1,3.002972007E-1,4.590938389E-1
4.815500375E0,2.371518402E0,-9.048982544E0,-8.756790161E-1,4.815500375E0,3.000585735E-1,1.934458464E-1,3.989939988E-1
4.825445375E0,3.243604889E0,-9.651479645E0,-7.441026306E-1,4.825445375E0,4.390992820E-1,-3.200697899E-2,2.589673996E-1
4.835390375E0,3.796255646E0,-1.038944504E1,-1.108444977E0,4.835390375E0,5.434113741E-1,-2.269921601E-1,1.170659214E-1
4.845336375E0,3.557651825E0,-1.121258331E1,-1.719624023E0,4.845336375E0,5.632516146E-1,-2.889743149E-1,2.813764848E-2
4.855281375E0,2.706671448E0,-1.191776688E1,-2.229164429E0,4.855281375E0,5.313229561E-1,-2.773797214E-1,-2.826998942E-2
4.865226375E0,1.667083282E0,-1.243643829E1,-2.346520386E0,4.865226375E0,5.286030769E-1,-2.832700908E-1,-6.845336407E-2
4.875171375E0,5.592370605E-1,-1.264405655E1,-1.987716522E0,4.875171375E0,5.301913619E-1,-2.156568766E-1,-7.763774693E-2
4.885116375E0,-1.197509766E-1,-1.264001495E1,-1.444047089E0,4.885116375E0,5.061224699E-1,-1.869671792E-1,-8.120478690E-2
4.895061375E0,-2.255809021E-1,-1.292068130E1,-1.716181183E0,4.895061375E0,4.735466838E-1,-2.222536057E-1,-9.285011142E-2
4.905006375E0,-6.165678406E-1,-1.356030121E1,-2.305505676E0,4.905006375E0,3.403089941E-1,-1.190686375E-1,-6.526775658E-2
4.914951375E0,-9.298663330E-1,-1.377675110E1,-2.270628204E0,4.914951375E0,1.745688170E-1,3.254111856E-2,-6.934632361E-2
4.924896375E0,-1.176253967E0,-1.327888641E1,-1.995051270E0,4.924896375E0,-5.223584175E-2,-1.439502984E-1,-8.358970284E-2
4.934841375E0,-1.444346466E0,-1.290122177E1,-1.865570526E0,4.934841375E0,-2.970691323E-1,-5.982882977E-1,-9.268401563E-2
4.944787375E0,-1.059047699E0,-1.244197678E1,-2.510279846E-1,4.944787375E0,-5.344073772E-1,-7.830626965E-1,-1.399047971E-1
4.954732375E0,-6.706054688E-1,-1.176283905E1,9.419911194E-1,4.954732375E0,-7.691470385E-1,-8.529185653E-1,-2.318539917E-1
4.964677375E0,-6.653663635E-1,-1.100361786E1,9.493258667E-1,4.964677375E0,-1.031941414E0,-1.025131822E0,-3.502687812E-1
4.974622375E0,-5.535488892E-1,-9.916728058E0,1.034947815E0,4.974622375E0,-1.280634165E0,-1.160826325E0,-5.232998133E-1
4.984567375E0,-9.168434143E-1,-9.200916595E0,6.527925110E-1,4.984567375E0,-1.599386334E0,-1.171768785E0,-6.936260462E-1
4.994512375E0,-1.607956238E0,-9.449250183E0,-8.030799866E-1,4.994512375E0,-2.054466724E0,-1.027658224E0,-8.517426848E-1
5.004457375E0,-2.553689575E0,-1.107995911E1,-1.401385803E0,5.004457375E0,-2.396673441E0,-7.094269395E-1,-1.014330268E0
5.014402375E0,-3.140319672E0,-1.260259277E1,-3.144960022E-1,5.014402375E0,-2.467927694E0,-2.949225605E-1,-1.174679279E0
5.024347375E0,-3.610641632E0,-1.378378647E1,1.038240967E0,5.024347375E0,-2.360219955E0,1.490362436E-1,-1.301228404E0
5.034292375E0,-4.932542725E0,-1.432326462E1,2.872077484E0,5.034292375E0,-2.053384542E0,7.511666417E-1,-1.259587049E0
5.044237375E0,-7.164551239E0,-1.478879654E1,4.530628510E0,5.044237375E0,-1.594432831E0,1.491478562E0,-9.516960979E-1
5.054183375E0,-8.662336578E0,-1.507260635E1,4.283492432E0,5.054183375E0,-1.163651109E0,1.863642812E0,-5.706318021E-1
5.064128375E0,-8.163124695E0,-1.314880692E1,2.131417694E0,5.064128375E0,-9.676853418E-1,1.672145844E0,-3.394038677E-1
5.074073375E0,-6.221362610E0,-9.997859344E0,-2.966830444E-1,5.074073375E0,-1.009206653E0,1.136395454E0,-1.870166361E-1
5.084018375E0,-4.064946899E0,-8.587043152E0,-1.389111328E0,5.084018375E0,-1.087925673E0,6.675547361E-1,-2.259174921E-2
5.093963375E0,-1.526375885E0,-8.434809723E0,-2.559228058E0,5.093963375E0,-1.278232694E0,4.156926870E-1,7.219150662E-2
5.103908375E0,5.854325867E-1,-8.408015442E0,-4.154011688E0,5.103908375E0,-1.516514778E0,2.796376646E-1,1.142135262E-1
5.113853375E0,2.179318085E0,-9.566157074E0,-4.595294037E0,5.113853375E0,-1.724736691E0,1.820137948E-1,9.745041281E-2
5.123798375E0,3.932023315E0,-1.020338196E1,-4.697681122E0,5.123798375E0,-1.823113918E0,-1.616767347E-1,-1.260921359E-1
5.133743375E0,4.454137573E0,-1.057655594E1,-3.706741791E0,5.133743375E0,-1.818762183E0,-2.540523112E-1,-3.051615059E-1
5.143688375E0,3.172652435E0,-1.013901581E1,-2.483335876E0,5.143688375E0,-1.755879402E0,-3.704417646E-1,-2.636332214E-1
5.153634375E0,2.425106964E0,-9.302704926E0,-2.575095062E0,5.153634375E0,-1.695750356E0,-7.466529012E-1,-2.155120522E-1
5.163579375E0,3.129691772E0,-7.852819977E0,-2.736309814E0,5.163579375E0,-1.679253101E0,-1.277247548E0,-3.081972301E-1
5.173524375E0,3.020419006E0,-6.753356323E0,-1.816622314E0,5.173524375E0,-1.592858195E0,-1.484235764E0,-4.082907140E-1
5.183469375E0,2.213297424E0,-6.233188019E0,-7.054829407E-1,5.183469375E0,-1.422211885E0,-1.426150560E0,-4.949441254E-1
5.193414375E0,1.672472076E0,-5.717959442E0,-4.293072510E-1,5.193414375E0,-1.222368717E0,-1.289962292E0,-5.766761303E-1
5.203359375E0,8.731343079E-1,-5.507646790E0,-5.908213806E-1,5.203359375E0,-1.044950008E0,-1.196688056E0,-6.544747949E-1
5.213304375E0,7.095245361E-2,-5.245990906E0,-5.770500183E-1,5.213304375E0,-8.688364029E-1,-1.097249866E0,-7.040594816E-1
5.223249375E0,-7.846682739E-1,-5.001998291E0,-2.906954956E-1,5.223249375E0,-6.485543251E-1,-1.013429046E0,-7.050379515E-1
5.233194375E0,-1.041384430E0,-4.725523224E0,-4.272116089E-1,5.233194375E0,-4.090518653E-1,-1.072276950E0,-7.175529003E-1
5.243139375E0,-9.304650879E-1,-4.423301697E0,-6.698570251E-1,5.243139375E0,-1.596487015E-1,-1.218624830E0,-7.297866344E-1
5.253083750E0,-6.953041077E-1,-4.208797760E0,-6.189628601E-1,5.253083750E0,1.010457426E-1,-1.364513159E0,-7.274562716E-1
5.263029750E0,-7.659571838E-1,-4.250411224E0,-4.571493530E-1,5.263029750E0,3.928728104E-1,-1.439640880E0,-6.587658525E-1
5.272974750E0,-8.681945801E-1,-4.289629669E0,-5.358856201E-1,5.272974750E0,6.701698899E-1,-1.447831750E0,-5.785264373E-1
5.282919750E0,-8.414002991E-1,-4.095034332E0,-9.538165283E-1,5.282919750E0,8.994563222E-1,-1.384027481E0,-4.868191481E-1
5.292864750E0,-1.105451202E0,-4.298012238E0,-1.535506897E0,5.292864750E0,1.073652387E0,-1.267932773E0,-3.590940237E-1
5.302809750E0,-1.281634827E0,-4.877606964E0,-2.655178528E0,5.302809750E0,1.112135887E0,-1.249609470E0,-2.411245108E-1
5.312754750E0,-1.118623810E0,-5.547763367E0,-3.708238678E0,5.312754750E0,1.074778676E0,-1.301787138E0,-1.234508082E-1
5.322699750E0,-7.896080017E-1,-6.137536926E0,-4.166136475E0,5.322699750E0,1.059479952E0,-1.301999331E0,-3.692044690E-2
5.332644750E0,-3.861968994E-1,-6.914421387E0,-4.469106445E0,5.332644750E0,1.031447411E0,-1.245927691E0,4.366312921E-2
5.342589750E0,-4.996609497E-1,-8.270601196E0,-5.819448395E0,5.342589750E0,8.229631782E-1,-1.462758183E0,7.879342139E-2
5.352534750E0,-4.710704041E-1,-9.707313538E0,-6.688541107E0,5.352534750E0,5.132026076E-1,-1.697096586E0,1.172517762E-1
5.362479750E0,-2.875520325E-1,-1.098191299E1,-6.479875031E0,5.362479750E0,3.369285166E-1,-1.624236226E0,1.178411320E-1
5.372425750E0,-6.680607605E-1,-1.226145218E1,-6.142326965E0,5.372425750E0,2.316097915E-1,-1.304606676E0,9.517141432E-2
5.382370750E0,-2.055974579E0,-1.406954224E1,-5.944588165E0,5.382370750E0,1.305934973E-2,-1.039440155E0,5.028223991E-2
5.392315750E0,-3.672163696E0,-1.640049500E1,-5.063071289E0,5.392315750E0,-3.167769313E-1,-8.450053930E-1,-1.420100778E-2
5.402260750E0,-4.861440582E0,-1.707693832E1,-3.997886353E0,5.402260750E0,-4.309152365E-1,-6.644326448E-1,-5.051107705E-2
5.412205750E0,-4.321663055E0,-1.535087769E1,-4.606969757E0,5.412205750E0,-4.696490467E-1,-4.870568514E-1,-1.482693404E-1
5.422150750E0,-2.376458130E0,-1.281799484E1,-8.157586212E0,5.422150750E0,-7.539164424E-1,-3.968355954E-1,-3.707782924E-1
5.432095750E0,1.856140137E-1,-1.035007690E1,-1.064152084E1,5.432095750E0,-8.471449018E-1,-6.409328431E-2,-5.727346539E-1
5.442040750E0,1.471739502E0,-7.970774689E0,-1.026116180E1,5.442040750E0,-8.109962344E-1,4.495785832E-1,-6.311848760E-1
5.451985750E0,4.083508301E-1,-8.029003601E0,-1.037881714E1,5.451985750E0,-1.221606374E0,8.099360466E-1,-5.666988492E-1
5.461930750E0,-1.188378754E0,-9.540260925E0,-7.864196320E0,5.461930750E0,-1.646855593E0,9.198606610E-1,-3.807228506E-1
5.471875750E0,-1.325643311E0,-1.165850601E1,-5.406457214E0,5.471875750E0,-1.686556697E0,3.974310160E-1,-1.501298100E-1
5.481820750E0,2.163002014E-1,-1.515343826E1,-2.500999146E0,5.481820750E0,-1.294807553E0,9.558904916E-3,1.567833126E-2
5.491766750E0,-6.680607605E-1,-1.901720352E1,1.897753601E0,5.491766750E0,-7.052633166E-1,-2.630308643E-2,3.452011347E-1
5.501711750E0,-3.301983490E0,-2.051079758E1,2.112556915E0,5.501711750E0,-1.978049278E-1,-3.374377787E-1,6.488605738E-1
5.511656750E0,-3.438948669E0,-1.645138916E1,-1.422042847E-2,5.511656750E0,-3.416916123E-3,-5.372971296E-1,6.684897542E-1
5.521601750E0,-2.581831055E0,-1.052955368E1,3.225791931E-1,5.521601750E0,1.760662943E-1,-3.241904378E-1,6.664029360E-1
5.531546750E0,-3.018473053E0,-7.294181671E0,1.627864838E0,5.531546750E0,3.812440336E-1,-9.543715976E-3,7.749093771E-1
5.541491750E0,-2.892135773E0,-6.526128845E0,5.656736755E-1,5.541491750E0,4.460110366E-1,1.638379246E-1,9.102448821E-1
5.551436750E0,-1.626218262E0,-6.306685181E0,1.189576263E0,5.551436750E0,5.255075097E-1,3.926783204E-1,1.075761437E0
5.561381750E0,1.062789917E-2,-6.576274567E0,2.656675415E0,5.561381750E0,7.936513424E-1,5.055627823E-1,1.140289187E0
5.571326750E0,1.607656860E0,-7.625592499E0,3.068469086E0,5.571326750E0,1.071352601E0,4.071005881E-1,1.148688197E0
5.581271750E0,2.434836731E0,-9.158105621E0,2.660417633E0,5.581271750E0,1.255167961E0,7.681533694E-2,1.142610073E0
5.591216750E0,3.490740967E0,-1.027807663E1,2.027833099E0,5.591216750E0,1.362689853E0,-3.493717015E-1,1.018219471E0
5.601161750E0,4.448449402E0,-1.078477295E1,1.562899933E0,5.601161750E0,1.482733965E0,-6.689481139E-1,7.195790410E-1
5.611107750E0,5.316943359E0,-1.076995377E1,1.445693665E0,5.611107750E0,1.637369275E0,-7.586190701E-1,3.184826076E-1
5.621052750E0,5.281467133E0,-1.054886353E1,1.160237274E0,5.621052750E0,1.794142365E0,-6.132888198E-1,-4.544315115E-2
5.630997750E0,3.934867401E0,-9.923314362E0,5.909710693E-1,5.630997750E0,1.882871032E0,-3.134047985E-1,-3.186788261E-1
5.640942750E0,1.644929352E0,-9.013656006E0,-6.529421997E-1,5.640942750E0,1.855270505E0,3.962650895E-2,-4.808096886E-1
5.650887750E0,-7.988887024E-1,-8.278983765E0,-2.106569366E0,5.650887750E0,1.752099395E0,2.342335880E-1,-5.601658225E-1
5.660832750E0,-2.254910889E0,-7.611521759E0,-3.138373718E0,5.660832750E0,1.546909451E0,2.558973432E-1,-5.538498163E-1
5.670777750E0,-3.484304352E0,-6.994055786E0,-3.213816833E0,5.670777750E0,1.319809198E0,2.757045925E-1,-4.461061060E-1
5.680722750E0,-4.470303955E0,-6.413413239E0,-2.326312408E0,5.680722750E0,1.171892166E0,3.829074800E-1,-2.574695945E-1
5.690667750E0,-5.056335297E0,-6.283932495E0,-1.022074585E0,5.690667750E0,1.133117676E0,5.590462685E-1,1.809654385E-2
5.700612750E0,-4.767585754E0,-6.558162231E0,-2.606080627E-1,5.700612750E0,1.078766465E0,5.252920389E-1,2.823364437E-1
5.710557750E0,-3.395838318E0,-6.941814423E0,-2.200424194E-1,5.710557750E0,9.925867319E-1,3.538101315E-1,3.785591125E-1
5.720502750E0,-1.823358307E0,-7.415579224E0,1.796264648E-2,5.720502750E0,9.290919304E-1,2.408873141E-1,3.180321455E-1
5.730448750E0,-3.972738647E-1,-7.951614532E0,9.571096802E-1,5.730448750E0,9.647070765E-1,3.130138814E-1,1.943561435E-1
5.740393750E0,4.122427368E-1,-8.261470184E0,1.981130219E0,5.740393750E0,1.095891356E0,5.336070061E-1,4.383960739E-2
5.750338750E0,8.153544617E-1,-8.421786804E0,2.142195282E0,5.750338750E0,1.227641463E0,7.834456563E-1,-8.359329402E-2
5.760283750E0,6.111790466E-1,-8.971593475E0,1.543739777E0,5.760283750E0,1.316889286E0,8.795532584E-1,-1.609956771E-1
5.770228750E0,-1.191522217E-1,-9.444460144E0,6.620732117E-1,5.770228750E0,1.321168780E0,8.812304139E-1,-1.631191373E-1
5.780173750E0,-1.063089294E0,-9.656119995E0,-3.415896606E-1,5.780173750E0,1.250263810E0,8.408971429E-1,-7.645961642E-2
5.790118750E0,-1.607507172E0,-9.809251556E0,-9.804611206E-1,5.790118750E0,1.136150241E0,8.375004530E-1,5.892238021E-2
5.800063750E0,-1.767823792E0,-9.815688171E0,-1.363813934E0,5.800063750E0,1.002296329E0,8.531712890E-1,1.980152875E-1
5.810008750E0,-1.600621490E0,-9.609566803E0,-1.423988800E0,5.810008750E0,8.687651753E-1,8.846747279E-1,3.202421069E-1
5.819953750E0,-1.220262451E0,-9.401050415E0,-1.205443268E0,5.819953750E0,7.650779486E-1,8.911334276E-1,4.149654210E-1
5.829898750E0,-7.593708801E-1,-9.581724701E0,-1.247206421E0,5.829898750E0,6.723065972E-1,8.824081421E-1,4.690319300E-1
5.839843750E0,-2.429447937E-1,-9.571096802E0,-1.626068573E0,5.839843750E0,5.746551752E-1,8.516011834E-1,4.998063445E-1
5.849788750E0,6.960525513E-2,-9.450896759E0,-1.964963837E0,5.849788750E0,4.514518082E-1,8.152483106E-1,5.299584866E-1
5.859734750E0,1.092727661E-1,-9.558223572E0,-2.226619720E0,5.859734750E0,2.943207920E-1,7.476018667E-1,5.626482964E-1
5.869679750E0,2.010319519E-1,-9.823621674E0,-2.272873535E0,5.869679750E0,1.288461536E-1,7.006789446E-1,5.869632363E-1
5.879624750E0,4.267625427E-1,-9.951006775E0,-1.520388336E0,5.879624750E0,8.098700084E-3,7.238857746E-1,5.961183906E-1
5.889569750E0,7.822732544E-1,-9.702673187E0,-6.539900208E-1,5.889569750E0,1.444843039E-2,6.873576641E-1,5.846633911E-1
5.899514750E0,1.285377045E0,-9.398056641E0,-4.493655396E-1,5.899514750E0,9.885092825E-2,5.663875341E-1,5.412163138E-1
5.909459750E0,1.677112427E0,-9.334738312E0,-3.327580261E-1,5.909459750E0,2.760693729E-1,4.954649806E-1,4.856703877E-1
5.919404750E0,1.707798615E0,-9.464069366E0,-7.964936829E-1,5.919404750E0,4.002688229E-1,4.299008846E-1,4.442297518E-1
5.929349750E0,1.322799225E0,-9.567204895E0,-1.599573669E0,5.929349750E0,3.936378062E-1,3.688041270E-1,4.308646917E-1
5.939294750E0,1.133442993E0,-9.541757812E0,-1.664239197E0,5.939294750E0,4.008493721E-1,3.615613878E-1,4.396232963E-1
5.949239750E0,1.826651459E0,-9.431137848E0,-1.149309998E0,5.949239750E0,4.783158302E-1,3.133268058E-1,4.048337638E-1
5.959184750E0,3.479514313E0,-9.466763763E0,-1.259181519E0,5.959184750E0,5.293042064E-1,9.018506855E-2,2.809379101E-1
5.969129750E0,4.960384827E0,-9.774823151E0,-1.674717407E0,5.969129750E0,5.107471347E-1,-6.395787746E-2,1.342075616E-1
5.979075750E0,5.654641113E0,-1.041908340E1,-1.846709747E0,5.979075750E0,4.690458179E-1,-1.363543123E-1,1.053967886E-2
5.989020750E0,5.654491425E0,-1.126347748E1,-1.708247681E0,5.989020750E0,4.430889785E-1,-1.276946366E-1,-8.908064663E-2
5.998965750E0,4.649631042E0,-1.201072357E1,-1.278641052E0,5.998965750E0,4.710140824E-1,-1.362079531E-1,-1.445838660E-1
6.008910750E0,3.285966797E0,-1.280033157E1,-1.100960541E0,6.008910750E0,5.287564397E-1,-3.020298183E-1,-2.385905683E-1
6.018855750E0,2.138003998E0,-1.377585297E1,-1.367556152E0,6.018855750E0,5.753902793E-1,-5.413300395E-1,-3.738786280E-1
6.028800750E0,8.415499878E-1,-1.449151474E1,-2.045496368E0,6.028800750E0,3.999460340E-1,-6.063769460E-1,-4.000939429E-1
6.038745750E0,-5.523513794E-2,-1.456770630E1,-1.695823517E0,6.038745750E0,2.028420120E-1,-5.087249279E-1,-4.202607274E-1
6.048690750E0,-6.535409546E-1,-1.409528870E1,-1.024918671E0,6.048690750E0,4.133753106E-2,-5.599687099E-1,-5.014197826E-1
6.058635750E0,-1.625918884E0,-1.363918716E1,-1.581461334E0,6.058635750E0,-2.278556377E-1,-9.706574082E-1,-5.404939651E-1
6.068580750E0,-1.969005432E0,-1.313189209E1,-4.583468628E-1,6.068580750E0,-5.361060500E-1,-1.192720532E0,-5.441904068E-1
6.078525750E0,-1.568139038E0,-1.278581177E1,1.374142456E0,6.078525750E0,-8.401828408E-1,-1.263756394E0,-5.939549804E-1
6.088470750E0,-1.319206696E0,-1.207284439E1,2.001637573E0,6.088470750E0,-1.054218769E0,-1.391885519E0,-6.985810399E-1
6.098415750E0,-1.665287018E0,-1.075154205E1,1.848655701E0,6.098415750E0,-1.285563231E0,-1.568336368E0,-8.579393029E-1
6.108360750E0,-2.272723846E0,-9.767039337E0,1.154998169E0,6.108360750E0,-1.653537393E0,-1.655517340E0,-9.834600091E-1
6.118306750E0,-3.169209595E0,-1.031699570E1,-3.998185730E-1,6.118306750E0,-2.179742336E0,-1.505662560E0,-1.088007569E0
6.128251750E0,-4.064497833E0,-1.235560638E1,-1.173559570E0,6.128251750E0,-2.572619200E0,-1.108942389E0,-1.192650557E0
6.138196750E0,-4.880301361E0,-1.396311356E1,-4.999603271E-2,6.138196750E0,-2.587172985E0,-5.082658529E-1,-1.259728432E0
6.148141750E0,-5.758225708E0,-1.423524765E1,1.781595154E0,6.148141750E0,-2.345129251E0,3.699577153E-1,-1.301812291E0
6.158086750E0,-7.053931274E0,-1.428988403E1,3.190615082E0,6.158086750E0,-1.998861074E0,1.379519582E0,-1.246269941E0
6.168031750E0,-8.513995056E0,-1.437595505E1,3.665278015E0,6.168031750E0,-1.708474040E0,2.183775663E0,-1.053664565E0
6.177976750E0,-9.117090912E0,-1.349219284E1,2.433489532E0,6.177976750E0,-1.536189914E0,2.474607706E0,-8.269395232E-1
6.187921750E0,-8.328081665E0,-1.169532944E1,7.430548096E-1,6.187921750E0,-1.480314732E0,2.373331785E0,-6.064610481E-1
6.197866750E0,-7.016509094E0,-9.959988098E0,-9.954299927E-2,6.197866750E0,-1.432874322E0,2.133791447E0,-3.700354397E-1
6.207811750E0,-5.782475281E0,-8.780590668E0,-5.300477600E-1,6.207811750E0,-1.346378565E0,1.766410351E0,-7.710806280E-2
6.217756750E0,-3.887865143E0,-8.396788788E0,-9.958790588E-1,6.217756750E0,-1.246760368E0,1.058166862E0,1.428189725E-1
6.227701750E0,-1.337917786E0,-8.406967621E0,-1.672172699E0,6.227701750E0,-1.303781033E0,5.539768338E-1,3.150617182E-1
6.237646750E0,6.764433289E-1,-8.247698822E0,-3.101550293E0,6.237646750E0,-1.546846151E0,-8.796372265E-2,4.271714687E-1
6.247591750E0,2.261946259E0,-8.649163971E0,-4.917124786E0,6.247591750E0,-1.821257472E0,-8.351675272E-1,3.475997448E-1
6.257538125E0,4.799619141E0,-9.002429352E0,-4.180356903E0,6.257538125E0,-1.875175834E0,-1.357470393E0,6.498587877E-2
6.267483125E0,5.536387024E0,-9.290280762E0,-1.939067688E0,6.267483125E0,-1.717169762E0,-1.209214211E0,-1.181077063E-1
6.277428125E0,4.753664703E0,-8.784781952E0,-1.734443207E0,6.277428125E0,-1.516253948E0,-1.083473563E0,-1.894223690E-1
6.287373125E0,4.167783051E0,-7.825726318E0,-2.455493774E0,6.287373125E0,-1.442678809E0,-1.213522553E0,-2.546561360E-1
6.297318125E0,3.590733032E0,-7.119195557E0,-2.525099030E0,6.297318125E0,-1.416208625E0,-1.498253703E0,-3.609410226E-1
6.307263125E0,2.974913635E0,-6.463558960E0,-2.306553497E0,6.307263125E0,-1.323663712E0,-1.679914474E0,-4.797009528E-1
6.317208125E0,2.019450531E0,-6.280789032E0,-1.798959045E0,6.317208125E0,-1.166552186E0,-1.604461789E0,-5.700846314E-1
6.327153125E0,9.063652039E-1,-6.136938171E0,-1.699715424E0,6.327153125E0,-1.018301249E0,-1.453957558E0,-6.459060311E-1
6.337098125E0,-1.303788757E-1,-6.043382721E0,-1.654659119E0,6.337098125E0,-8.721941113E-1,-1.251928806E0,-6.774261594E-1
6.347043125E0,-1.107846222E0,-6.129004669E0,-1.391656036E0,6.347043125E0,-6.720582247E-1,-1.106276274E0,-6.870334744E-1
6.356988125E0,-1.226848755E0,-6.090384979E0,-1.291065216E0,6.356988125E0,-4.507039785E-1,-1.131932974E0,-7.410764694E-1
6.366933125E0,-8.699908447E-1,-5.862708435E0,-1.097368011E0,6.366933125E0,-2.277657986E-1,-1.251371026E0,-7.801722884E-1
6.376878125E0,-7.238946533E-1,-5.704936523E0,-7.194039917E-1,6.376878125E0,9.788697585E-3,-1.402024269E0,-7.741916776E-1
6.386823125E0,-6.474037170E-1,-5.478457489E0,-4.685256958E-1,6.386823125E0,2.749895155E-1,-1.521871805E0,-7.389520407E-1
6.396769125E0,-6.834786987E-1,-5.197491760E0,-4.090992737E-1,6.396769125E0,5.474431515E-1,-1.574619412E0,-6.794674397E-1
6.406714125E0,-7.911048889E-1,-4.913532257E0,-8.731343079E-1,6.406714125E0,7.634273767E-1,-1.568875432E0,-5.895219445E-1
6.416659125E0,-8.622070313E-1,-4.775968323E0,-1.729204102E0,6.416659125E0,8.892721534E-1,-1.521118879E0,-5.002456307E-1
6.426604125E0,-6.899153137E-1,-4.742138672E0,-2.363884277E0,6.426604125E0,9.389691949E-1,-1.424143910E0,-4.271627069E-1
6.436549125E0,-5.803431702E-1,-4.929998016E0,-2.860401764E0,6.436549125E0,9.660934806E-1,-1.265111923E0,-3.417332768E-1
6.446494125E0,-5.432203674E-1,-5.209017792E0,-3.130440216E0,6.446494125E0,9.968822002E-1,-1.060577750E0,-2.913882136E-1
6.456439125E0,-4.755610657E-1,-5.331463165E0,-3.259471893E0,6.456439125E0,1.032089949E0,-8.171158433E-1,-2.623746693E-1
6.466384125E0,-6.186634827E-1,-5.998476105E0,-3.138822784E0,6.466384125E0,1.087313771E0,-5.839539766E-1,-1.947905123E-1
6.476329125E0,-8.449928284E-1,-7.889194336E0,-3.674708405E0,6.476329125E0,1.100372553E0,-6.552049518E-1,-6.000900269E-2
6.486274125E0,-7.568261719E-1,-1.014979340E1,-5.000351715E0,6.486274125E0,1.005304456E0,-9.119217992E-1,2.783213276E-3
6.496219125E0,-3.782633972E-1,-1.153546188E1,-5.455704803E0,6.496219125E0,9.565268159E-1,-1.014536262E0,-1.985658519E-2
6.506164125E0,-7.006929016E-1,-1.268896317E1,-5.994135132E0,6.506164125E0,8.340654373E-1,-8.974781632E-1,-7.816150039E-2
6.516109125E0,-1.542691956E0,-1.435799240E1,-6.493496704E0,6.516109125E0,4.671351016E-1,-8.635923862E-1,-1.231396198E-1
6.526054125E0,-3.078498230E0,-1.640887756E1,-6.521488495E0,6.526054125E0,5.316812918E-2,-9.473127723E-1,-1.428968608E-1
6.536000125E0,-4.150718536E0,-1.637414978E1,-5.634283447E0,6.536000125E0,-1.641335636E-1,-9.312211871E-1,-1.415993720E-1
6.545945125E0,-3.657943268E0,-1.443882431E1,-5.988596649E0,6.545945125E0,-3.695860505E-1,-7.058440447E-1,-1.914229393E-1
6.555890125E0,-2.438279572E0,-1.256816437E1,-8.643176422E0,6.555890125E0,-7.203155756E-1,-5.947934389E-1,-2.808119357E-1
6.565835125E0,-9.409432983E-1,-1.086755081E1,-1.073807007E1,6.565835125E0,-6.085509062E-1,-4.538550079E-1,-4.150484502E-1
6.575780125E0,-2.643502808E-1,-8.924890594E0,-1.029798523E1,6.575780125E0,-4.718226492E-1,2.718465030E-1,-4.614359438E-1
6.585725125E0,-1.213676147E0,-8.874744873E0,-8.643924866E0,6.585725125E0,-8.829789162E-1,1.170864582E0,-3.262139857E-1
6.595670125E0,-2.605032806E0,-9.690249023E0,-6.250402222E0,6.595670125E0,-1.175167561E0,1.283947945E0,-8.794043958E-2
6.605615125E0,-2.571203156E0,-1.124656265E1,-4.525688782E0,6.605615125E0,-1.173553109E0,7.828023434E-1,9.246619791E-2
6.615560125E0,-1.649270325E0,-1.433583847E1,-2.324965210E0,6.615560125E0,-9.971525669E-1,4.205128253E-1,2.706356943E-1
6.625505125E0,-1.954186249E0,-1.786070847E1,1.196911011E0,6.625505125E0,-4.659644067E-1,3.198882341E-1,5.752795935E-1
6.635450125E0,-3.020718384E0,-1.866423752E1,3.434907074E0,6.635450125E0,5.686632916E-2,7.892169058E-2,8.530206680E-1
6.645395125E0,-3.010240173E0,-1.538844955E1,2.015259247E0,6.645395125E0,2.674754858E-1,-1.738906652E-1,9.288493395E-1
6.655340125E0,-2.588716736E0,-1.114941467E1,7.442523193E-1,6.655340125E0,2.890497446E-1,-1.968572289E-1,8.974924684E-1
6.665285125E0,-1.995949402E0,-8.673413544E0,5.957611084E-1,6.665285125E0,3.267224729E-1,-1.673588604E-1,8.537220359E-1
6.675230125E0,-8.372090149E-1,-7.512278137E0,6.903643799E-1,6.675230125E0,3.806957006E-1,-1.595868170E-2,8.703407049E-1
6.685175125E0,-2.131567383E-1,-6.946903839E0,1.463506622E0,6.685175125E0,4.815777242E-1,2.669837475E-1,9.536378980E-1
6.695121125E0,2.823129272E-1,-6.642886047E0,2.296075287E0,6.695121125E0,6.352617741E-1,5.970373154E-1,9.366876483E-1
6.705066125E0,1.746867371E0,-7.036717072E0,2.453248444E0,6.705066125E0,7.868273258E-1,6.024069190E-1,8.637430668E-1
6.715011125E0,3.026406555E0,-7.867489471E0,2.198777618E0,6.715011125E0,8.876780272E-1,3.242128193E-1,7.995800972E-1
6.724956125E0,3.985162811E0,-8.270900574E0,1.949695587E0,6.724956125E0,9.839336276E-1,-1.258214712E-1,6.769309640E-1
6.734901125E0,4.365222473E0,-8.831484833E0,1.856738892E0,6.734901125E0,1.109460354E0,-4.590412378E-1,4.373361468E-1
6.744846125E0,3.931424561E0,-9.518705750E0,1.820214844E0,6.744846125E0,1.275076151E0,-6.103703976E-1,1.854796559E-1
6.754791125E0,3.111130371E0,-9.929002533E0,1.585502930E0,6.754791125E0,1.440312743E0,-5.013270378E-1,-3.658855706E-2
6.764736125E0,1.693428497E0,-1.006566833E1,1.302142181E0,6.764736125E0,1.568666935E0,-1.726938635E-1,-2.137599587E-1
6.774681125E0,1.353186035E-1,-9.912237396E0,7.548802185E-1,6.774681125E0,1.687294602E0,3.010630310E-1,-4.130000770E-1
6.784626125E0,-9.372010803E-1,-9.453142090E0,-3.442840576E-2,6.784626125E0,1.758500814E0,8.389365673E-1,-6.447348595E-1
6.794571125E0,-2.311642914E0,-9.093140717E0,-1.322649536E0,6.794571125E0,1.722321272E0,1.156260967E0,-7.503811717E-1
6.804516125E0,-4.354295197E0,-9.039402466E0,-2.889291687E0,6.804516125E0,1.564053774E0,1.161623120E0,-6.445548534E-1
6.814461125E0,-6.254593506E0,-8.756939850E0,-3.686982880E0,6.814461125E0,1.263283253E0,1.175769091E0,-3.573497534E-1
6.824406125E0,-7.330556030E0,-8.202343140E0,-3.579506378E0,6.824406125E0,9.285412431E-1,1.278311133E0,2.497852966E-2
6.834351125E0,-6.861880646E0,-7.660469971E0,-2.645299072E0,6.834351125E0,6.520366669E-1,1.381229281E0,3.725242615E-1
6.844296125E0,-4.886588287E0,-7.339986420E0,-1.581611023E0,6.844296125E0,4.022835195E-1,1.302825212E0,5.649720430E-1
6.854242125E0,-2.628234558E0,-7.628735962E0,-3.107537842E-1,6.854242125E0,2.304121554E-1,1.115044832E0,5.984869003E-1
6.864187125E0,-9.602531433E-1,-8.365503845E0,1.742975464E0,6.864187125E0,2.972884774E-1,9.843199849E-1,5.606083274E-1
6.874132125E0,5.165757751E-1,-8.759783936E0,3.548071747E0,6.874132125E0,5.597395301E-1,9.460296035E-1,4.335821867E-1
6.884077125E0,1.830842743E0,-8.963210907E0,3.882626038E0,6.884077125E0,8.585796356E-1,9.665115476E-1,2.536028922E-1
6.894022125E0,2.500250702E0,-9.402846680E0,3.307372284E0,6.894022125E0,1.137426138E0,1.078138232E0,5.637744814E-2
6.903967125E0,2.447560272E0,-9.867031403E0,2.208806763E0,6.903967125E0,1.312615752E0,1.262902737E0,-7.157820463E-2
6.913912125E0,1.498084717E0,-9.877359924E0,4.348457336E-1,6.913912125E0,1.338227153E0,1.387565017E0,-8.369931579E-2
6.923857125E0,2.618055725E-1,-9.579629059E0,-1.352886658E0,6.923857125E0,1.243059039E0,1.417555928E0,-1.189348847E-2
6.933802125E0,-7.207511902E-1,-9.137598267E0,-2.305355988E0,6.933802125E0,1.082226753E0,1.384464502E0,1.057292819E-1
6.943747125E0,-1.301543427E0,-8.784931641E0,-2.336640930E0,6.943747125E0,9.088503718E-1,1.337790608E0,2.437609732E-1
6.953692125E0,-1.380130005E0,-8.560398560E0,-1.613345032E0,6.953692125E0,8.331249952E-1,1.258473992E0,3.736782074E-1
6.963637125E0,-9.400451660E-1,-8.176147614E0,-1.036295013E0,6.963637125E0,8.312903047E-1,1.140215278E0,4.751853347E-1
6.973582125E0,-3.438349915E-1,-7.918832703E0,-9.307644653E-1,6.973582125E0,8.154042959E-1,1.037702799E0,5.552071929E-1
6.983527125E0,2.368075562E-1,-7.904612274E0,-1.138532410E0,6.983527125E0,7.420752645E-1,9.499036670E-1,6.126918793E-1
6.993472125E0,7.011419678E-1,-8.034542084E0,-1.780846710E0,6.993472125E0,6.198662519E-1,8.183792233E-1,6.443816423E-1
7.003417125E0,1.075663147E0,-8.555907898E0,-2.290836182E0,7.003417125E0,4.765844643E-1,6.727908254E-1,6.495547891E-1
7.013362125E0,1.448388062E0,-9.195677490E0,-2.266736298E0,7.013362125E0,3.606629372E-1,5.709313154E-1,6.327198744E-1
7.023308125E0,1.934127960E0,-9.625284119E0,-1.841320953E0,7.023308125E0,3.023398817E-1,5.077199340E-1,5.696702600E-1
7.033253125E0,2.329755249E0,-9.687554626E0,-1.484163666E0,7.033253125E0,3.016557097E-1,4.453444183E-1,4.700541496E-1
7.043198125E0,2.369871826E0,-9.607321472E0,-1.403780823E0,7.043198125E0,3.569570482E-1,3.975315690E-1,3.495227695E-1
7.053143125E0,2.000889130E0,-9.742490387E0,-1.840123444E0,7.053143125E0,3.746258020E-1,3.288457096E-1,2.226210386E-1
7.063088125E0,1.038240967E0,-1.000863693E1,-2.401156769E0,7.063088125E0,2.762762606E-1,2.290377170E-1,1.837426871E-1
7.073033125E0,1.170565796E-1,-1.014605118E1,-2.068847809E0,7.073033125E0,2.188606560E-1,2.520580888E-1,2.624079287E-1
7.082978125E0,1.682501221E-1,-9.952952728E0,-6.959028625E-1,7.082978125E0,2.790625095E-1,1.936151385E-1,3.189820349E-1
7.092923125E0,1.794318695E0,-1.015787659E1,-9.418414307E-1,7.092923125E0,3.349958360E-1,-1.440997720E-1,2.357824594E-1
7.102868125E0,3.674109650E0,-1.066157913E1,-1.372944946E0,7.102868125E0,3.487094045E-1,-3.732306957E-1,1.043245420E-1
7.112813125E0,4.614005127E0,-1.119462067E1,-1.419797516E0,7.112813125E0,3.344188929E-1,-3.883348107E-1,9.761822410E-3
7.122758125E0,4.841382294E0,-1.160596527E1,-1.654808807E0,7.122758125E0,3.161839843E-1,-3.082941175E-1,-8.939334005E-2
7.132703125E0,4.268074493E0,-1.210293182E1,-1.615889740E0,7.132703125E0,3.507720530E-1,-2.857952118E-1,-2.216653526E-1
7.142648125E0,3.244053955E0,-1.298025742E1,-1.364263000E0,7.142648125E0,4.412115216E-1,-3.852816820E-1,-3.805021644E-1
7.152593125E0,1.999841309E0,-1.407029068E1,-1.389710083E0,7.152593125E0,4.745441675E-1,-4.242072403E-1,-4.887064099E-1
7.162538125E0,7.578739929E-1,-1.467892502E1,-1.782792664E0,7.162538125E0,3.545352817E-1,-3.496504128E-1,-5.437772274E-1
7.172483125E0,-1.591191101E-1,-1.465617233E1,-1.836381226E0,7.172483125E0,2.015084773E-1,-2.589423656E-1,-5.777042508E-1
7.182428125E0,-9.145980835E-1,-1.440798843E1,-1.791773987E0,7.182428125E0,3.543236852E-2,-3.102337718E-1,-6.029894948E-1
7.192374125E0,-1.716181183E0,-1.396221542E1,-2.367925873E0,7.192374125E0,-2.662976384E-1,-6.170906425E-1,-6.068515778E-1
7.202319125E0,-2.060614929E0,-1.336121521E1,-1.715732117E0,7.202319125E0,-6.013239622E-1,-8.075868487E-1,-5.973064303E-1
7.212264125E0,-1.554517365E0,-1.281350418E1,5.906716919E-1,7.212264125E0,-8.590532541E-1,-8.092033863E-1,-6.040476561E-1
7.222209125E0,-1.024918671E0,-1.198542618E1,1.493594055E0,7.222209125E0,-1.108616829E0,-9.597005248E-1,-6.378108859E-1
7.232154125E0,-7.788304138E-1,-1.096080688E1,1.824106750E0,7.232154125E0,-1.270418048E0,-1.117615104E0,-7.408733368E-1
7.242099125E0,-1.286724243E0,-1.003573059E1,2.182760925E0,7.242099125E0,-1.400470614E0,-1.181000710E0,-8.678256869E-1
7.252044500E0,-2.421364746E0,-9.726623383E0,1.159488831E0,7.252044500E0,-1.647445798E0,-1.092844725E0,-8.903059959E-1
7.261989500E0,-4.406087494E0,-9.713151398E0,-9.355545044E-1,7.261989500E0,-2.092657328E0,-7.523287535E-1,-7.846109867E-1
7.271934500E0,-6.076164551E0,-1.098565521E1,-2.096689911E0,7.271934500E0,-2.393260479E0,-3.113153577E-1,-7.687124610E-1
7.281879500E0,-6.371350708E0,-1.300555481E1,-1.041833496E0,7.281879500E0,-2.401241302E0,1.941933185E-1,-8.720038533E-1
7.291824500E0,-6.847959595E0,-1.382510056E1,1.097517700E0,7.291824500E0,-2.307604313E0,9.738417268E-1,-8.606609106E-1
7.301769500E0,-7.916886749E0,-1.428958466E1,3.023263092E0,7.301769500E0,-2.134145975E0,1.865441561E0,-6.313580275E-1
7.311714500E0,-8.677754517E0,-1.453462509E1,3.412603455E0,7.311714500E0,-1.900437832E0,2.376874685E0,-3.254925907E-1
7.321659500E0,-8.105195160E0,-1.317111053E1,2.274370422E0,7.321659500E0,-1.652073026E0,2.297348261E0,-1.246626079E-1
7.331604500E0,-6.278843079E0,-1.045291306E1,6.264472961E-1,7.331604500E0,-1.435800076E0,1.697887182E0,-1.452797791E-3
7.341549500E0,-4.373006287E0,-8.435258789E0,-4.695735168E-1,7.341549500E0,-1.298503160E0,9.891804457E-1,1.620417386E-1
7.351494500E0,-2.193089447E0,-8.227191467E0,-1.106648712E0,7.351494500E0,-1.237944961E0,3.657778203E-1,2.890263200E-1
7.361439500E0,5.068460083E-1,-8.792266388E0,-1.991458740E0,7.361439500E0,-1.253845811E0,1.148543358E-1,3.805099726E-1
7.371385500E0,2.697390747E0,-9.440568237E0,-3.126548309E0,7.371385500E0,-1.342676878E0,1.424382925E-1,3.154177964E-1
7.381330500E0,4.270918579E0,-1.042956161E1,-5.017416229E0,7.381330500E0,-1.550861478E0,-1.002915576E-1,1.665444970E-1
7.391275500E0,4.536166992E0,-1.083147583E1,-5.155429230E0,7.391275500E0,-1.665192485E0,-3.487410545E-1,-6.017200649E-2
7.401220500E0,3.999682617E0,-1.050455566E1,-3.724554749E0,7.401220500E0,-1.682335973E0,-4.604825675E-1,-1.638191491E-1
7.411165500E0,3.174299011E0,-9.221873016E0,-3.251538391E0,7.411165500E0,-1.677593946E0,-6.597495675E-1,-2.294378430E-1
7.421110500E0,2.955454102E0,-7.878416748E0,-2.468516693E0,7.421110500E0,-1.638193727E0,-7.747287154E-1,-3.215215504E-1
7.431055500E0,2.554737396E0,-6.940766602E0,-1.856888580E0,7.431055500E0,-1.518039107E0,-7.912642956E-1,-4.393824041E-1
7.441000500E0,2.045346680E0,-6.235583038E0,-1.481169891E0,7.441000500E0,-1.370881200E0,-7.714439631E-1,-5.407503247E-1
7.450945500E0,1.582509155E0,-5.913901978E0,-1.468895416E0,7.450945500E0,-1.235499144E0,-8.322401643E-1,-5.718389750E-1
7.460890500E0,9.961784363E-1,-5.677693176E0,-1.547182617E0,7.460890500E0,-1.102941513E0,-8.422244191E-1,-5.751725435E-1
7.470835500E0,3.101550293E-1,-5.335205383E0,-1.210382996E0,7.470835500E0,-9.169217944E-1,-7.419111133E-1,-5.913208723E-1
7.480780500E0,-1.380130005E-1,-5.122048645E0,-9.568103027E-1,7.480780500E0,-7.125175595E-1,-6.596131325E-1,-6.159687638E-1
7.490725500E0,-3.495231628E-1,-4.989723816E0,-1.039288788E0,7.490725500E0,-5.151389241E-1,-6.437979341E-1,-6.314971447E-1
7.500670500E0,-5.812413025E-1,-5.021158447E0,-1.102457428E0,7.500670500E0,-2.815226614E-1,-7.034223080E-1,-6.341445446E-1
7.510615500E0,-6.822811890E-1,-5.078040161E0,-1.026864624E0,7.510615500E0,-2.139363065E-2,-8.393375278E-1,-6.124826670E-1
7.520560500E0,-7.212002563E-1,-5.155429230E0,-1.002465363E0,7.520560500E0,2.418911755E-1,-1.005612731E0,-5.625509620E-1
7.530505500E0,-7.565267944E-1,-5.067561951E0,-1.137185211E0,7.530505500E0,5.004311204E-1,-1.115286231E0,-4.983660877E-1
7.540450500E0,-9.183403015E-1,-4.838987274E0,-1.383722534E0,7.540450500E0,7.240384221E-1,-1.094978929E0,-4.181958735E-1
7.550395500E0,-1.264720001E0,-4.794380035E0,-1.873953094E0,7.550395500E0,9.039594531E-1,-9.725525975E-1,-3.133861125E-1
7.560340500E0,-1.476679230E0,-5.045108643E0,-2.608475647E0,7.560340500E0,1.009000540E0,-8.264789581E-1,-2.107792050E-1
7.570286500E0,-1.510209503E0,-5.288652191E0,-3.324436798E0,7.570286500E0,1.028280020E0,-7.054017782E-1,-1.163227409E-1
7.580231500E0,-1.306333466E0,-5.256469116E0,-3.958967285E0,7.580231500E0,1.012444854E0,-6.439087987E-1,-4.629936442E-2
7.590176500E0,-7.099736023E-1,-5.525609436E0,-4.212839355E0,7.590176500E0,1.021867633E0,-6.004276276E-1,-9.576237760E-3
7.600121500E0,-5.580395508E-1,-6.839876404E0,-4.033212891E0,7.600121500E0,1.069522738E0,-4.960983396E-1,1.286536455E-1
7.610066500E0,-3.004252625E-1,-8.246501312E0,-4.416266327E0,7.610066500E0,1.044846177E0,-4.768598974E-1,2.037763596E-1
7.620011500E0,1.939965820E-1,-9.289532318E0,-6.045029297E0,7.620011500E0,8.762762547E-1,-7.569340467E-1,1.802438945E-1
7.629956500E0,5.206173706E-1,-1.046533722E1,-6.629414062E0,7.629956500E0,6.897239685E-1,-1.010985732E0,1.234868690E-1
7.639901500E0,3.101550293E-1,-1.129551086E1,-6.185437317E0,7.639901500E0,5.973660946E-1,-9.404002428E-1,9.979379177E-2
7.649846500E0,-8.655001831E-1,-1.238689133E1,-6.618187408E0,7.649846500E0,3.739564419E-1,-9.355714321E-1,1.359901428E-1
7.659791500E0,-2.281555481E0,-1.418989197E1,-6.454278259E0,7.659791500E0,4.461778700E-2,-8.348391652E-1,1.707159579E-1
7.669736500E0,-3.454815674E0,-1.549353104E1,-5.581443329E0,7.669736500E0,-1.942656189E-1,-8.526871204E-1,1.540653408E-1
7.679681500E0,-3.167563019E0,-1.474643463E1,-6.064339142E0,7.679681500E0,-3.528592288E-1,-8.332837224E-1,8.894903958E-2
7.689626500E0,-2.420466614E0,-1.342094101E1,-7.416477356E0,7.689626500E0,-5.464518070E-1,-6.713553071E-1,-2.998507395E-2
7.699571500E0,-1.094673615E0,-1.194935120E1,-8.671018524E0,7.699571500E0,-6.541709304E-1,-9.599277377E-2,-2.050070465E-1
7.709516500E0,6.286926270E-2,-9.870923309E0,-8.748557281E0,7.709516500E0,-5.813172460E-1,5.746932030E-1,-2.630381286E-1
7.719461500E0,1.881587219E-1,-7.696844330E0,-9.221274261E0,7.719461500E0,-3.833929002E-1,9.238194823E-1,-1.950526536E-1
7.729406500E0,1.490899658E-1,-5.844296722E0,-8.545279999E0,7.729406500E0,-4.315004945E-1,1.095240593E0,-1.207336709E-1
7.739351500E0,-2.544708252E-1,-5.681884460E0,-6.099515991E0,7.739351500E0,-7.260707021E-1,1.090816736E0,-3.009738773E-2
7.749296500E0,-9.836045837E-1,-7.086114349E0,-3.424578552E0,7.749296500E0,-6.787612438E-1,4.063582718E-1,1.643344164E-1
7.759241500E0,-6.848258972E-1,-1.083910995E1,-3.443888397E0,7.759241500E0,-4.789214730E-1,-4.198036790E-1,3.939934671E-1
7.769186500E0,-3.680845642E-1,-1.557780579E1,-1.867666168E0,7.769186500E0,-2.094236761E-1,-6.643140912E-1,5.805242062E-1
7.779132500E0,-1.977388000E0,-1.925625641E1,1.289867706E0,7.779132500E0,3.162778020E-1,-7.392891645E-1,8.002045751E-1
7.789077500E0,-4.317322083E0,-2.026141617E1,2.976260834E0,7.789077500E0,7.387598157E-1,-8.393869996E-1,9.895630479E-1
7.799022500E0,-5.184019775E0,-1.772284515E1,1.336420898E0,7.799022500E0,6.747220159E-1,-8.880316615E-1,1.014609694E0
7.808967500E0,-4.277654572E0,-1.396940048E1,-8.891510010E-1,7.808967500E0,4.438554943E-1,-9.673703909E-1,9.481326342E-1
7.818912500E0,-2.686014404E0,-1.061981598E1,-5.643264771E-1,7.818912500E0,3.405233026E-1,-6.578000188E-1,9.466990232E-1
7.828857500E0,-1.301842804E0,-8.348738708E0,1.449884949E0,7.828857500E0,4.016931951E-1,9.763064981E-2,9.676921964E-1
7.838802500E0,1.781295776E-1,-7.204967194E0,2.261048126E0,7.838802500E0,5.449746847E-1,9.395049810E-1,8.413435817E-1
7.848747500E0,1.965562592E0,-6.949448547E0,2.271077271E0,7.848747500E0,7.249068618E-1,1.437928677E0,6.115969419E-1
7.858692500E0,3.385659485E0,-6.699917450E0,2.322869568E0,7.858692500E0,8.770609498E-1,1.421609044E0,4.734404981E-1
7.868637500E0,3.806135101E0,-6.402785339E0,1.886676636E0,7.868637500E0,9.320182204E-1,1.065497279E0,3.622359335E-1
7.878582500E0,4.344415741E0,-5.783523102E0,1.174457703E0,7.878582500E0,9.562529325E-1,6.063115597E-1,2.033349127E-1
7.888527500E0,4.025578766E0,-5.951623535E0,3.164419556E-1,7.888527500E0,1.022277236E0,1.738179326E-1,9.559033811E-2
7.898472500E0,2.975961456E0,-6.838678894E0,-2.797682190E-1,7.898472500E0,1.105532885E0,-1.330652535E-1,5.106111616E-2
7.908417500E0,1.988614655E0,-7.896229706E0,-3.218307495E-1,7.908417500E0,1.155839801E0,-1.895338595E-1,-1.193649322E-2
7.918362500E0,1.061592407E0,-9.071286163E0,-5.882766724E-2,7.918362500E0,1.196141720E0,-1.278225929E-1,-8.771426976E-2
7.928307500E0,1.329235840E-1,-1.021490799E1,-1.604663086E-1,7.928307500E0,1.255522728E0,-7.952962816E-2,-1.542056799E-1
7.938252500E0,-9.946815491E-1,-1.089090225E1,-2.216889954E-1,7.938252500E0,1.346584678E0,-8.980596811E-2,-2.103954405E-1
7.948197500E0,-1.787133636E0,-1.064301773E1,-4.695735168E-1,7.948197500E0,1.429929137E0,-1.206709296E-1,-2.902785540E-1
7.958142500E0,-2.658920746E0,-1.023796005E1,-7.641609192E-1,7.958142500E0,1.475921750E0,4.667652771E-3,-2.919685543E-1
7.968087500E0,-4.229454803E0,-9.985884247E0,-1.344204712E0,7.968087500E0,1.439723253E0,3.951145113E-1,-1.005160362E-1
7.978032500E0,-5.206473083E0,-9.310189362E0,-1.992805939E0,7.978032500E0,1.247676253E0,8.768545985E-1,1.672793031E-1
7.987977500E0,-4.429289246E0,-8.523575134E0,-2.762804718E0,7.987977500E0,8.809570074E-1,1.054660797E0,2.838583589E-1
7.997923500E0,-2.846780090E0,-7.807763672E0,-2.147284698E0,7.997923500E0,5.606990457E-1,1.073670506E0,2.655511796E-1
8.007868500E0,-1.671723633E0,-7.516918488E0,7.146139526E-1,8.007868500E0,5.559408069E-1,1.159620881E0,2.107907236E-1
8.017813500E0,-1.037642212E0,-7.730374603E0,3.615880737E0,8.017813500E0,8.062603474E-1,1.296699882E0,1.832015216E-1
8.027758500E0,-1.996847534E-1,-7.801626434E0,3.685485992E0,8.027758500E0,1.044142962E0,1.139661789E0,9.770632535E-2
8.037703500E0,6.816824341E-1,-8.211773529E0,1.829495544E0,8.037703500E0,1.169812679E0,8.102261424E-1,3.794502001E-3
8.047648500E0,9.623487854E-1,-8.836574249E0,3.826043701E-1,8.047648500E0,1.219760537E0,5.967490077E-1,-2.160326764E-2
8.057593500E0,9.657916260E-1,-8.991053009E0,-5.224136353E-1,8.057593500E0,1.203323007E0,6.066998243E-1,-1.234700903E-2
8.067538500E0,5.002597046E-1,-9.069190521E0,-1.018631744E0,8.067538500E0,1.103532672E0,6.907113791E-1,5.015657842E-2
8.077483500E0,-3.415896606E-1,-9.067244568E0,-1.147214355E0,8.077483500E0,9.990735650E-1,7.015784383E-1,1.554946303E-1
8.087428500E0,-1.086590424E0,-8.991502075E0,-8.816665649E-1,8.087428500E0,9.488993883E-1,6.166864634E-1,2.705266774E-1
8.097373500E0,-1.372196503E0,-9.010362854E0,-4.875361633E-1,8.097373500E0,9.276659489E-1,5.254400373E-1,3.771002889E-1
8.107318500E0,-1.061592407E0,-8.994944916E0,-1.411564636E-1,8.107318500E0,9.341592789E-1,5.103034377E-1,4.456615150E-1
8.117263500E0,-3.830534363E-1,-8.751700745E0,-2.041754150E-1,8.117263500E0,9.503614902E-1,5.931474566E-1,4.831280708E-1
8.127208500E0,1.317260742E-1,-8.678652649E0,-8.128097534E-1,8.127208500E0,9.075163007E-1,7.229536772E-1,4.885278940E-1
8.137153500E0,2.830613708E-1,-8.865763550E0,-1.808239746E0,8.137153500E0,7.647797465E-1,8.222536445E-1,4.943149090E-1
8.147098500E0,2.014810181E-1,-9.166039124E0,-2.794688416E0,8.147098500E0,5.383423567E-1,8.173121810E-1,5.092691183E-1
8.157043500E0,3.891906738E-3,-9.611063690E0,-3.308420105E0,8.157043500E0,2.595798969E-1,7.397661209E-1,5.486868620E-1
8.166988500E0,-1.071771240E-1,-1.008243347E1,-2.866389313E0,8.166988500E0,4.762877151E-2,6.037036180E-1,6.125718355E-1
8.176933500E0,2.734812927E-1,-1.018377274E1,-1.642983398E0,8.176933500E0,8.105014451E-3,4.608854055E-1,6.368930340E-1
8.186878500E0,1.112935638E0,-9.842632141E0,-3.818559265E-1,8.186878500E0,1.144748628E-1,3.260692656E-1,5.825014114E-1
8.196823500E0,1.971550140E0,-9.484876099E0,3.141966248E-1,8.196823500E0,3.435546160E-1,2.773473859E-1,4.603458941E-1
8.206768500E0,2.126477966E0,-9.466614075E0,-2.781216431E-1,8.206768500E0,4.682584703E-1,2.504500151E-1,3.291924000E-1
8.216713500E0,1.611249390E0,-9.661957855E0,-1.757046204E0,8.216713500E0,4.013090730E-1,2.188605219E-1,2.343287468E-1
8.226658500E0,1.065933380E0,-9.579928436E0,-2.005529480E0,8.226658500E0,3.128558993E-1,3.273404241E-1,2.143702209E-1
8.236604500E0,1.357077942E0,-9.249715118E0,-1.291813660E0,8.236604500E0,3.159282804E-1,2.925130129E-1,1.728265733E-1
8.246549500E0,2.731370087E0,-9.405241699E0,-1.321452026E0,8.246549500E0,3.294536769E-1,4.306510836E-2,4.340067133E-2
8.256494917E0,3.677702179E0,-9.977801056E0,-1.040785675E0,8.256494917E0,3.512769639E-1,-1.157503128E-1,-6.211255118E-2
8.266439917E0,3.923341370E0,-1.067744614E1,-1.169368286E0,8.266439917E0,3.529845774E-1,-2.210120261E-1,-1.276550889E-1
8.276384917E0,3.897295532E0,-1.148681305E1,-1.379381561E0,8.276384917E0,3.426499069E-1,-3.253819048E-1,-2.048480213E-1
8.286329917E0,3.594475250E0,-1.239961487E1,-1.109642487E0,8.286329917E0,4.064246416E-1,-4.538671672E-1,-3.277854025E-1
8.296274917E0,2.996618500E0,-1.345057938E1,-8.921447754E-1,8.296274917E0,4.625850320E-1,-5.156744719E-1,-4.488818944E-1
8.306219917E0,2.045646057E0,-1.455139023E1,-1.157093811E0,8.306219917E0,4.269418418E-1,-5.294073820E-1,-5.678420663E-1
8.316164917E0,8.746311951E-1,-1.523681488E1,-1.629960480E0,8.316164917E0,2.882533669E-1,-4.742792249E-1,-6.580868959E-1
8.326109917E0,-8.039781189E-1,-1.542332703E1,-1.697919159E0,8.326109917E0,1.088132933E-1,-4.592251778E-1,-7.063964009E-1
8.336054917E0,-2.294728088E0,-1.510389130E1,-2.469414825E0,8.336054917E0,-1.731347591E-1,-7.005550265E-1,-7.130402923E-1
8.345999917E0,-3.240611115E0,-1.513996628E1,-2.688259735E0,8.345999917E0,-5.538051128E-1,-8.620895743E-1,-6.176738739E-1
8.355944917E0,-2.780767365E0,-1.466126175E1,-4.938230896E-1,8.355944917E0,-8.287941217E-1,-9.115426540E-1,-5.551541448E-1
8.365889917E0,-2.062710571E0,-1.383602783E1,9.590556335E-1,8.365889917E0,-1.136107326E0,-1.005517125E0,-5.439451933E-1
8.375834917E0,-1.621128845E0,-1.216190918E1,1.520388336E0,8.375834917E0,-1.398969054E0,-1.107165456E0,-5.798318982E-1
8.385779917E0,-1.580413513E0,-1.062310913E1,1.736239471E0,8.385779917E0,-1.624232531E0,-1.111246943E0,-6.845359206E-1
8.395724917E0,-2.197430420E0,-1.038779846E1,8.134085083E-1,8.395724917E0,-1.934346676E0,-9.220828414E-1,-7.617873549E-1
8.405669917E0,-3.363804932E0,-1.029005173E1,-7.024891663E-1,8.405669917E0,-2.294855356E0,-5.836843252E-1,-7.405539751E-1
8.415614917E0,-4.570595398E0,-9.887239380E0,-1.786983948E0,8.415614917E0,-2.530062199E0,-2.457867563E-1,-7.194941640E-1
8.425559917E0,-5.508095856E0,-1.011551468E1,-1.245110779E0,8.425559917E0,-2.524521828E0,6.202432886E-2,-7.528936863E-1
8.435504917E0,-5.863157501E0,-1.120180573E1,6.640191650E-1,8.435504917E0,-2.330341101E0,7.203086615E-1,-8.389462829E-1
8.445449917E0,-6.294710083E0,-1.214274902E1,2.518512726E0,8.445449917E0,-2.022100210E0,1.604579806E0,-8.092299104E-1
8.455394917E0,-7.305857391E0,-1.288310944E1,3.472928009E0,8.455394917E0,-1.750600338E0,2.401036739E0,-5.689434409E-1
8.465339917E0,-7.516619110E0,-1.304417450E1,2.537074127E0,8.465339917E0,-1.517741799E0,2.477535963E0,-2.788450718E-1
8.475284917E0,-6.133195953E0,-1.167646866E1,8.340655518E-1,8.475284917E0,-1.351355076E0,1.950414300E0,-1.360663176E-1
8.485229917E0,-4.082161102E0,-9.930798798E0,1.751358032E-2,8.485229917E0,-1.209326744E0,1.437835693E0,-7.116828114E-2
8.495175917E0,-2.612068176E0,-9.020990753E0,-9.409432983E-1,8.495175917E0,-1.146949768E0,1.022139907E0,5.503452197E-2
8.505120917E0,-5.519023132E-1,-9.041198730E0,-3.030597839E0,8.505120917E0,-1.247407436E0,5.489838123E-1,2.096818835E-1
8.515065917E0,1.118623810E0,-9.420060883E0,-4.234544220E0,8.515065917E0,-1.415065169E0,2.190663517E-1,2.430165857E-1
8.525010917E0,2.971620483E0,-1.031684601E1,-4.866380310E0,8.525010917E0,-1.602215052E0,7.561235689E-4,1.469651610E-1
8.534955917E0,3.278632050E0,-1.099912720E1,-4.425846405E0,8.534955917E0,-1.695174575E0,-1.557576209E-1,5.882739648E-2
8.544900917E0,3.229384460E0,-1.049737061E1,-3.928879852E0,8.544900917E0,-1.731085420E0,-4.337895215E-1,-7.846149057E-2
8.554845917E0,3.490591278E0,-9.123826904E0,-3.274440765E0,8.554845917E0,-1.682075381E0,-7.384001017E-1,-2.649659812E-1
8.564790917E0,3.518433380E0,-7.612120514E0,-2.057770844E0,8.564790917E0,-1.598822236E0,-9.654758573E-1,-4.412049353E-1
8.574735917E0,3.214864655E0,-6.595285034E0,-1.179996185E0,8.574735917E0,-1.474576354E0,-1.117398977E0,-5.901049972E-1
8.584680917E0,2.462379456E0,-5.993536377E0,-7.599696350E-1,8.584680917E0,-1.314085126E0,-1.124047041E0,-6.687622666E-1
8.594625917E0,1.680555267E0,-5.393883362E0,-9.870474243E-1,8.594625917E0,-1.140143514E0,-1.007911921E0,-7.024285793E-1
8.604570917E0,9.355545044E-1,-4.898563385E0,-1.292861481E0,8.604570917E0,-9.731150866E-1,-8.578180075E-1,-7.240839005E-1
8.614515917E0,-3.188369751E-2,-4.852908325E0,-1.290915527E0,8.614515917E0,-8.056456447E-1,-6.923925877E-1,-6.889714599E-1
8.624460917E0,-9.307644653E-1,-5.050048370E0,-1.345851288E0,8.624460917E0,-6.379789114E-1,-5.952918530E-1,-6.661271453E-1
8.634405917E0,-1.350940704E0,-5.103786621E0,-1.473685455E0,8.634405917E0,-4.594668448E-1,-6.146916151E-1,-6.384907961E-1
8.644350917E0,-1.423839111E0,-5.285209351E0,-1.373394012E0,8.644350917E0,-2.335322350E-1,-6.901775599E-1,-5.852054954E-1
8.654295917E0,-1.197210388E0,-5.465135193E0,-1.131497040E0,8.654295917E0,4.727427661E-2,-8.100351691E-1,-5.452325940E-1
8.664240917E0,-6.523434448E-1,-5.382806396E0,-1.295705566E0,8.664240917E0,3.293099701E-1,-9.725348949E-1,-5.241680145E-1
8.674185917E0,-2.691403198E-1,-5.394332428E0,-1.530866547E0,8.674185917E0,5.889450312E-1,-1.119212031E0,-5.082798600E-1
8.684130917E0,-2.236349487E-1,-5.471422119E0,-1.667232971E0,8.684130917E0,8.243402243E-1,-1.144799709E0,-4.603299201E-1
8.694075917E0,-3.679348755E-1,-5.348377991E0,-1.946552124E0,8.694075917E0,1.022400498E0,-1.063814044E0,-3.980356455E-1
8.704020917E0,-4.647834778E-1,-5.243895264E0,-2.555036774E0,8.704020917E0,1.147017956E0,-9.753673673E-1,-3.295170367E-1
8.713965917E0,-5.911207581E-1,-5.394033051E0,-3.312162323E0,8.713965917E0,1.180986404E0,-9.354866743E-1,-2.745296061E-1
8.723910917E0,-8.092172241E-1,-5.629942474E0,-3.794609070E0,8.723910917E0,1.157633901E0,-9.015633464E-1,-2.015920281E-1
8.733855917E0,-4.836442566E-1,-5.573809204E0,-4.234244843E0,8.733855917E0,1.082014203E0,-8.964453340E-1,-1.924444586E-1
8.743800917E0,-1.844165039E-1,-5.802084503E0,-4.570146332E0,8.743800917E0,1.012868166E0,-8.096912503E-1,-9.782447666E-2
8.753745917E0,-7.180567932E-1,-7.451205139E0,-5.093458099E0,8.753745917E0,8.890798688E-1,-9.242101908E-1,9.536270052E-2
8.763690917E0,-5.602848816E-1,-9.839338989E0,-6.547384644E0,8.763690917E0,6.394465566E-1,-1.305925846E0,2.005618215E-1
8.773635917E0,9.123527527E-1,-1.088820786E1,-6.720724182E0,8.773635917E0,5.117163062E-1,-1.638769031E0,1.327313334E-1
8.783581917E0,6.414161682E-1,-1.199500626E1,-5.996679840E0,8.783581917E0,5.035963058E-1,-1.562923193E0,8.496966958E-2
8.793526917E0,-4.141886902E-1,-1.366882553E1,-6.087989960E0,8.793526917E0,2.881709635E-1,-1.226463199E0,2.813330106E-2
8.803471917E0,-1.942061462E0,-1.586700439E1,-5.562133484E0,8.803471917E0,-5.845651031E-2,-9.190705419E-1,-2.926181257E-2
8.813416917E0,-3.693718872E0,-1.694955322E1,-4.960983582E0,8.813416917E0,-2.143633217E-1,-8.652687073E-1,-6.176879257E-2
8.823361917E0,-4.245621185E0,-1.603226074E1,-4.991969147E0,8.823361917E0,-2.304685265E-1,-8.227095604E-1,-1.163590699E-1
8.833306917E0,-3.440295868E0,-1.374262207E1,-6.396348724E0,8.833306917E0,-3.474391997E-1,-5.699581504E-1,-2.650233209E-1
8.843251917E0,-1.629361725E0,-1.114686996E1,-8.225844269E0,8.843251917E0,-3.726987541E-1,-7.525841147E-2,-4.142388999E-1
8.853196917E0,-7.584727478E-1,-9.305848389E0,-9.674232330E0,8.853196917E0,-4.341114461E-1,3.933251500E-1,-4.674807489E-1
8.863141917E0,-2.426753540E0,-9.551038513E0,-1.020158569E1,8.863141917E0,-8.705063462E-1,6.691593528E-1,-2.564824820E-1
8.873086917E0,-4.151616669E0,-1.002345612E1,-8.000413055E0,8.873086917E0,-1.301658988E0,4.951314628E-1,7.584632933E-2
8.883031917E0,-3.711831207E0,-1.132934052E1,-6.722969513E0,8.883031917E0,-1.507562876E0,-6.486100703E-2,3.385402560E-1
8.892976917E0,-2.562221832E0,-1.445334412E1,-4.291425934E0,8.892976917E0,-1.398231149E0,-2.744099200E-1,5.837864280E-1
8.902921917E0,-2.115101624E0,-1.738170456E1,1.152603149E-1,8.902921917E0,-8.322992325E-1,-8.025056124E-2,7.510518432E-1
8.912866917E0,-2.559377747E0,-1.873069931E1,2.581831055E0,8.912866917E0,-2.271065116E-1,4.333755001E-2,9.713788629E-1
8.922811917E0,-3.487298126E0,-1.604543335E1,1.269060974E0,8.922811917E0,9.351358563E-2,-1.196987703E-1,1.027345777E0
8.932756917E0,-2.590662689E0,-1.077055252E1,-6.280938721E-1,8.932756917E0,2.271239460E-1,-8.734437078E-2,9.496071935E-1
8.942701917E0,-1.674418030E0,-7.849526825E0,-1.345701599E-1,8.942701917E0,3.098294735E-1,3.622070551E-1,8.297015429E-1
8.952646917E0,-9.550140381E-1,-7.047943726E0,-1.514849854E-1,8.952646917E0,4.150272608E-1,7.053600550E-1,7.977150679E-1
8.962591917E0,-6.779402161E-1,-6.956184540E0,1.117126923E0,8.962591917E0,5.749186873E-1,9.752192497E-1,8.970786929E-1
8.972536917E0,-9.939331055E-2,-6.844666443E0,2.435585175E0,8.972536917E0,6.464387774E-1,1.193456769E0,9.601276517E-1
8.982481917E0,1.340312805E0,-7.024143219E0,2.178719330E0,8.982481917E0,6.928994656E-1,1.168062449E0,9.211467505E-1
8.992426917E0,2.587369537E0,-7.530240784E0,1.976789246E0,8.992426917E0,8.079165220E-1,8.913384676E-1,8.666165471E-1
9.002371917E0,3.434907074E0,-8.345744934E0,2.235601044E0,9.002371917E0,9.786674380E-1,3.971037269E-1,8.251404762E-1
9.012316917E0,3.848197632E0,-9.026678925E0,2.399061127E0,9.012316917E0,1.135752320E0,-1.244717538E-1,7.383875847E-1
9.022261917E0,4.329446869E0,-8.942703552E0,2.320175171E0,9.022261917E0,1.313134074E0,-5.237850547E-1,5.277315378E-1
9.032206917E0,4.766837311E0,-8.780890045E0,2.371518402E0,9.032206917E0,1.557120442E0,-6.955538988E-1,2.393687516E-1
9.042151917E0,4.302652588E0,-9.163195038E0,2.761457520E0,9.042151917E0,1.783993483E0,-5.774866343E-1,-1.193257514E-3
9.052096917E0,2.780617676E0,-9.746082916E0,2.588417358E0,9.052096917E0,1.929657936E0,-2.227549553E-1,-1.450720578E-1
9.062041917E0,6.602769470E-1,-1.007584717E1,7.104226685E-1,9.062041917E0,2.008090734E0,1.679536700E-1,-2.438186109E-1
9.071986917E0,-1.095272369E0,-9.825567627E0,-1.780247955E0,9.071986917E0,1.996272445E0,4.507435262E-1,-3.510233462E-1
9.081931917E0,-2.211950226E0,-9.128317566E0,-3.997137909E0,9.081931917E0,1.773368001E0,6.180883050E-1,-4.408919811E-1
9.091876917E0,-3.322790222E0,-8.395291901E0,-4.996310120E0,9.091876917E0,1.452773929E0,7.611197829E-1,-3.936314881E-1
9.101821917E0,-5.138963470E0,-7.620203705E0,-4.399052124E0,9.101821917E0,1.170539856E0,9.158179760E-1,-1.547110677E-1
9.111767917E0,-6.310876465E0,-6.931785278E0,-3.329675903E0,9.111767917E0,9.441442490E-1,1.091231108E0,1.943071783E-1
9.121712917E0,-5.725443878E0,-6.606511688E0,-1.886526947E0,9.121712917E0,7.771831751E-1,1.180263042E0,4.715435505E-1
9.131657917E0,-3.843407593E0,-6.732998657E0,-9.006770325E-1,9.131657917E0,6.031847000E-1,1.027004600E0,5.621140003E-1
9.141602917E0,-1.541644135E0,-7.033274231E0,2.758763123E-1,9.141602917E0,5.289850235E-1,7.224951982E-1,4.470923543E-1
9.151547917E0,2.921923828E-1,-7.444918213E0,2.388732605E0,9.151547917E0,7.244190574E-1,5.658021569E-1,2.630942464E-1
9.161492917E0,9.446855164E-1,-8.027506714E0,3.596421204E0,9.161492917E0,1.033417702E0,6.485798955E-1,1.484954953E-1
9.171437917E0,1.283880157E0,-8.346942444E0,2.873274994E0,9.171437917E0,1.265617251E0,7.873991728E-1,6.149847806E-2
9.181382917E0,1.197360077E0,-9.222920837E0,1.290466461E0,9.181382917E0,1.363134146E0,8.101652265E-1,-1.052313019E-4
9.191327917E0,4.661306763E-1,-1.048794022E1,-1.425036621E-1,9.191327917E0,1.340879321E0,7.783979177E-1,5.430281628E-3
9.201272917E0,-3.770658875E-1,-1.096889008E1,-1.192120972E0,9.201272917E0,1.213284373E0,7.455856204E-1,6.461690366E-2
9.211217917E0,-9.077124023E-1,-1.080318466E1,-1.924547882E0,9.211217917E0,1.006200790E0,7.697078586E-1,1.230528429E-1
9.221162917E0,-1.219813385E0,-1.035217255E1,-1.952689362E0,9.221162917E0,7.940562963E-1,8.702887893E-1,1.828378737E-1
9.231107917E0,-1.340312805E0,-1.011865814E1,-1.668430481E0,9.231107917E0,6.167073250E-1,9.944216609E-1,2.162539214E-1
9.241052917E0,-1.103505249E0,-9.730215912E0,-1.416204987E0,9.241052917E0,5.111180544E-1,1.108340740E0,2.301050276E-1
9.250997750E0,-6.240522766E-1,-9.070388031E0,-9.991722107E-1,9.250997750E0,4.763912261E-1,1.250246167E0,2.500478029E-1
9.260942750E0,-4.245172119E-1,-8.768465881E0,-1.004710693E0,9.260942750E0,4.347111583E-1,1.360610485E0,3.058655262E-1
9.270887750E0,-3.483256531E-1,-8.735684052E0,-1.496587830E0,9.270887750E0,3.607938588E-1,1.328724623E0,3.970824182E-1
9.280832750E0,-1.429527283E-1,-8.938811646E0,-2.189347229E0,9.280832750E0,2.774198651E-1,1.129897475E0,5.034874678E-1
9.290777750E0,2.838098145E-1,-9.211394806E0,-2.423310699E0,9.290777750E0,1.892250776E-1,9.244569540E-1,5.987924337E-1
9.300722750E0,1.015637970E0,-9.528435516E0,-2.216740265E0,9.300722750E0,1.026507616E-1,7.948387861E-1,6.729140878E-1
9.310667750E0,1.958676910E0,-9.620344391E0,-1.789977722E0,9.310667750E0,7.368239015E-2,7.200630307E-1,6.842159033E-1
9.320612750E0,2.813848572E0,-9.459578705E0,-1.219364319E0,9.320612750E0,1.277094185E-1,6.337086558E-1,6.451584697E-1
9.330557750E0,3.447331238E0,-9.215436401E0,-9.795629883E-1,9.330557750E0,2.648271322E-1,4.866515100E-1,5.161095858E-1
9.340502750E0,3.383563843E0,-9.030870209E0,-1.099014587E0,9.340502750E0,3.557916582E-1,3.790600598E-1,3.325898051E-1
9.350447750E0,2.399659882E0,-9.134155426E0,-1.779200134E0,9.350447750E0,3.611095250E-1,2.078695595E-1,2.019025981E-1
9.360392750E0,1.238973541E0,-9.000483398E0,-2.245779877E0,9.360392750E0,3.246804178E-1,1.612053812E-1,2.027556002E-1
9.370337750E0,6.783892822E-1,-8.840615845E0,-8.722361755E-1,9.370337750E0,3.449778259E-1,2.938376665E-1,2.424619198E-1
9.380282750E0,1.176104279E0,-9.150770874E0,-4.281097412E-1,9.380282750E0,3.596118987E-1,1.629848480E-1,2.105242312E-1
9.390227750E0,2.149080963E0,-9.873018951E0,-1.158141632E0,9.390227750E0,3.527249992E-1,-1.922619939E-1,1.436443329E-1
9.400172750E0,3.154839478E0,-1.067445236E1,-1.365759888E0,9.400172750E0,3.666591942E-1,-4.727945924E-1,1.037919968E-1
9.410117750E0,3.781286774E0,-1.167781586E1,-1.361269226E0,9.410117750E0,4.061599374E-1,-5.498093963E-1,6.064565107E-2
9.420062750E0,4.024680634E0,-1.266650986E1,-1.294208679E0,9.420062750E0,4.781419933E-1,-4.895952940E-1,-4.340937734E-2
9.430007750E0,3.764821014E0,-1.361538666E1,-1.006506958E0,9.430007750E0,6.006564498E-1,-4.497437775E-1,-2.232749760E-1
9.439952750E0,2.924618225E0,-1.455318649E1,-1.026864624E0,9.439952750E0,6.531457901E-1,-4.056248069E-1,-3.894817829E-1
9.449897750E0,1.500180359E0,-1.513831970E1,-1.665137329E0,9.449897750E0,5.454025269E-1,-3.296357393E-1,-4.907008708E-1
9.459842750E0,9.430389404E-3,-1.506706787E1,-2.404000854E0,9.459842750E0,3.236688077E-1,-2.860323191E-1,-5.383850336E-1
9.469787750E0,-1.071322174E0,-1.445139816E1,-2.481240234E0,9.469787750E0,8.918721974E-2,-3.521101177E-1,-5.606749654E-1
9.479732750E0,-1.773062897E0,-1.385967865E1,-2.500550079E0,9.479732750E0,-2.079054415E-1,-5.941680074E-1,-5.394620895E-1
9.489678750E0,-1.925296326E0,-1.362840958E1,-2.102378082E0,9.489678750E0,-5.347071290E-1,-9.283049703E-1,-4.955058694E-1
9.499623750E0,-1.133592682E0,-1.346270416E1,1.948947144E-1,9.499623750E0,-7.577077150E-1,-1.081128240E0,-4.907960594E-1
9.509568750E0,-6.815327454E-1,-1.326077408E1,1.632954254E0,9.509568750E0,-9.478995204E-1,-1.241374373E0,-5.415191054E-1
9.519513750E0,-9.623487854E-1,-1.220965988E1,1.482367401E0,9.519513750E0,-1.201891541E0,-1.429634094E0,-6.293770671E-1
9.529458750E0,-1.492845612E0,-1.106753494E1,1.435814209E0,9.529458750E0,-1.496400476E0,-1.508966804E0,-7.086029053E-1
9.539403750E0,-1.897603912E0,-9.999655609E0,1.541195068E0,9.539403750E0,-1.784197807E0,-1.389944434E0,-7.907816768E-1
9.549348750E0,-2.742297363E0,-8.754993896E0,1.078656921E0,9.549348750E0,-1.993688464E0,-1.144166827E0,-7.986064553E-1
9.559293750E0,-4.242028656E0,-8.453371124E0,1.811233521E-1,9.559293750E0,-2.261067867E0,-7.379068732E-1,-7.898992300E-1
9.569238750E0,-5.413791962E0,-9.915680237E0,-5.785469055E-1,9.569238750E0,-2.455037832E0,-2.075933665E-1,-7.935191393E-1
9.579183750E0,-5.758076019E0,-1.131407227E1,2.752775574E-1,9.579183750E0,-2.397016764E0,3.946503997E-1,-8.706658483E-1
9.589128750E0,-5.940995636E0,-1.223690323E1,1.653311920E0,9.589128750E0,-2.141934872E0,1.068389416E0,-8.783754110E-1
9.599073750E0,-6.868616638E0,-1.297786240E1,2.694696350E0,9.599073750E0,-1.795755386E0,1.804748893E0,-7.063440084E-1
9.609018750E0,-7.513176270E0,-1.326272003E1,2.511028290E0,9.609018750E0,-1.474063039E0,2.241815329E0,-4.297263920E-1
9.618963750E0,-6.855144653E0,-1.238689133E1,1.104403381E0,9.618963750E0,-1.297108054E0,2.196813107E0,-2.277237475E-1
9.628908750E0,-5.305417328E0,-1.049647247E1,-3.156935120E-1,9.628908750E0,-1.282922506E0,1.786345959E0,-1.168965027E-1
9.638853750E0,-3.189267883E0,-9.267827454E0,-5.206173706E-1,9.638853750E0,-1.267552614E0,1.253006101E0,-7.443638891E-2
9.648798750E0,-1.294358368E0,-9.207502899E0,-2.499801636E-2,9.648798750E0,-1.221355915E0,9.562456608E-1,5.604209006E-2
9.658743750E0,-4.146377563E-2,-9.371112671E0,-9.662406921E-1,9.658743750E0,-1.245455146E0,4.989457428E-1,1.435698122E-1
9.668688750E0,2.081271973E0,-9.435478821E0,-2.968327332E0,9.668688750E0,-1.368283629E0,-6.308591366E-2,1.033145338E-1
9.678633750E0,3.882626038E0,-9.986333313E0,-4.172573090E0,9.678633750E0,-1.470167637E0,-7.301774025E-1,-9.845267236E-2
9.688578750E0,4.776567078E0,-1.051248917E1,-3.969595184E0,9.688578750E0,-1.493644476E0,-1.059620857E0,-2.968457639E-1
9.698523750E0,4.506229248E0,-9.801168365E0,-3.869902496E0,9.698523750E0,-1.468978047E0,-1.340336680E0,-4.214723706E-1
9.708468750E0,3.832929382E0,-8.854985962E0,-3.454516296E0,9.708468750E0,-1.412777662E0,-1.602086306E0,-5.222792625E-1
9.718413750E0,3.193010101E0,-8.296347656E0,-2.844235382E0,9.718413750E0,-1.365712047E0,-1.812425256E0,-5.588306189E-1
9.728358750E0,2.560575256E0,-7.499105530E0,-2.648891602E0,9.728358750E0,-1.319735765E0,-1.879416108E0,-5.869683027E-1
9.738303750E0,1.695224762E0,-6.891519012E0,-1.909579010E0,9.738303750E0,-1.204063296E0,-1.737904310E0,-5.968627334E-1
9.748248750E0,1.090931396E0,-6.489904175E0,-1.719474335E0,9.748248750E0,-1.060536742E0,-1.593636274E0,-6.054915190E-1
9.758193750E0,6.557862854E-1,-6.348298645E0,-1.905387726E0,9.758193750E0,-9.278226495E-1,-1.487390995E0,-6.231735945E-1
9.768138750E0,1.676513672E-2,-6.563401337E0,-1.501677246E0,9.768138750E0,-7.830075026E-1,-1.300813913E0,-6.393350959E-1
9.778083750E0,-4.951702881E-1,-6.502927094E0,-1.024768982E0,9.778083750E0,-6.194468141E-1,-1.104464889E0,-6.428568363E-1
9.788028750E0,-7.140151978E-1,-6.134094086E0,-1.095422058E0,9.788028750E0,-4.518377781E-1,-1.085908413E0,-6.383962035E-1
9.797973750E0,-5.538482666E-1,-5.653144226E0,-1.128802643E0,9.797973750E0,-2.714389861E-1,-1.206709623E0,-6.728559136E-1
9.807918750E0,-4.397854614E-1,-5.243446198E0,-8.656498718E-1,9.807918750E0,-8.208871633E-2,-1.362438917E0,-6.930674911E-1
9.817863750E0,-6.647676086E-1,-4.987328796E0,-5.113366699E-1,9.817863750E0,1.226202175E-1,-1.477543116E0,-6.701469421E-1
9.827808750E0,-9.550140381E-1,-4.687352600E0,-3.430865479E-1,9.827808750E0,3.389298916E-1,-1.549381971E0,-6.186980605E-1
9.837753750E0,-1.346150665E0,-4.317621460E0,-5.363346863E-1,9.837753750E0,5.503635406E-1,-1.572693348E0,-5.394687057E-1
9.847698750E0,-1.700763245E0,-4.123026123E0,-8.647517395E-1,9.847698750E0,7.712545395E-1,-1.451007724E0,-4.624704421E-1
9.857643750E0,-1.807640991E0,-4.162993011E0,-1.408421173E0,9.857643750E0,9.676048756E-1,-1.229641199E0,-4.039213657E-1
9.867588750E0,-1.683998108E0,-4.342769165E0,-2.226170654E0,9.867588750E0,1.045936942E0,-1.003451109E0,-3.565531969E-1
9.877533750E0,-1.550924835E0,-4.672084351E0,-3.013832703E0,9.877533750E0,1.034975410E0,-8.491470218E-1,-3.064447641E-1
9.887478750E0,-1.690135345E0,-5.292394409E0,-3.278781738E0,9.887478750E0,1.045336008E0,-6.818119884E-1,-2.385043204E-1
9.897423750E0,-1.587448883E0,-5.858666840E0,-3.520678711E0,9.897423750E0,1.075799465E0,-5.303561687E-1,-1.778167337E-1
9.907368750E0,-1.516646118E0,-6.813830566E0,-4.040847015E0,9.907368750E0,1.027613521E0,-5.008068681E-1,-1.291531175E-1
9.917313750E0,-1.911824341E0,-8.649463348E0,-5.079686737E0,9.917313750E0,8.596383929E-1,-7.012736797E-1,-4.086280242E-3
9.927258750E0,-2.195185089E0,-1.021400986E1,-5.592819672E0,9.927258750E0,7.135806084E-1,-9.148914814E-1,1.433651298E-1
9.937203750E0,-1.452130280E0,-1.138801849E1,-6.345604248E0,9.937203750E0,5.791644454E-1,-1.016314268E0,1.747747213E-1
9.947148750E0,-7.179071045E-1,-1.301723053E1,-6.311624908E0,9.947148750E0,4.526311159E-1,-8.679111004E-1,1.117955670E-1
9.957093750E0,-1.749262390E0,-1.541000473E1,-4.850064240E0,9.957093750E0,2.780531645E-1,-6.161574721E-1,1.134195626E-1
9.967038750E0,-3.317251740E0,-1.683384384E1,-4.123475189E0,9.967038750E0,-3.395686671E-2,-6.726952195E-1,1.050103903E-1
9.976983750E0,-3.040776672E0,-1.547856216E1,-4.521497498E0,9.976983750E0,-2.352412343E-1,-7.437704206E-1,7.043643296E-2
9.986929750E0,-2.327958984E0,-1.335283264E1,-4.935985565E0,9.986929750E0,-3.380676806E-1,-5.676259398E-1,-2.078174241E-2
9.996874750E0,-1.544488220E0,-1.145313309E1,-8.438551941E0,9.996874750E0,-5.501375794E-1,-3.438434601E-1,-1.304118335E-1
1.000681975E1,-1.550775146E-1,-9.858948212E0,-1.098445770E1,1.000681975E1,-6.467697024E-1,2.899889052E-1,-2.643105984E-1
1.001676475E1,8.818162537E-1,-9.175020447E0,-1.141316620E1,1.001676475E1,-9.282490611E-1,1.006955624E0,-3.367195129E-1
1.002670975E1,-2.302212524E-1,-1.109118576E1,-1.052311707E1,1.002670975E1,-1.367649317E0,1.378800631E0,-2.691650093E-1
1.003665475E1,-7.824229431E-1,-1.292442352E1,-8.759035492E0,1.003665475E1,-1.582023740E0,1.144918919E0,-1.051699519E-1
1.004659975E1,1.538800049E-1,-1.401071457E1,-6.313271484E0,1.004659975E1,-1.568704963E0,8.454514742E-1,8.292831481E-2
1.005654475E1,8.214916992E-1,-1.622146729E1,-1.759141846E0,1.005654475E1,-1.209678054E0,6.366772652E-1,1.850749254E-1
1.006648975E1,1.481918335E-2,-1.807805649E1,2.439477081E0,1.006648975E1,-5.201220512E-1,3.779785037E-1,3.838441074E-1
