"time_acc","acc_x","acc_y","acc_z","time_gyro","gyro_x","gyro_y","gyro_z"
-9.012499868E-5,-7.826025696E0,-8.953481140E0,3.868106232E0,4.937875001E-3,1.666673779E0,2.697481632E0,7.385672927E-1
9.965875000E-3,-1.048300049E1,-1.465512451E1,5.301824799E0,1.499287500E-2,1.506495595E0,2.971747398E0,1.111700654E0
2.002087500E-2,-1.267953278E1,-2.084804626E1,4.432582397E0,2.504887500E-2,1.283631325E0,2.016520977E0,1.291123152E0
3.007687500E-2,-1.419019135E1,-2.317420898E1,-2.423460388E-1,3.510487500E-2,1.030234456E0,3.044148684E-1,8.055787086E-1
4.013287500E-2,-1.203766754E1,-1.995530273E1,-3.301235046E0,4.516087500E-2,6.597921252E-1,-2.749696672E-1,1.343036741E-1
5.018887500E-2,-3.163671112E0,-1.473146576E1,2.200424194E-1,5.521687500E-2,6.453157067E-1,8.309953213E-1,-1.030755937E-1
6.024487500E-2,2.819237366E0,-1.222223373E1,7.652237091E0,6.527287500E-2,5.249511003E-1,1.679750919E0,5.950678140E-2
7.030087500E-2,3.324436798E0,-1.077399536E1,9.769134979E0,7.532887500E-2,4.446206987E-1,2.142132282E0,2.080434859E-1
8.035687500E-2,1.924398193E0,-8.147407379E0,8.822653198E0,8.538487500E-2,6.236511469E-1,2.431030512E0,1.293452084E-1
9.041287500E-2,2.486329651E-1,-6.538702698E0,6.745273132E0,9.543987500E-2,9.833590388E-1,2.515535355E0,1.239001453E-1
1.004678750E-1,-6.870712280E-1,-7.435936890E0,4.530029755E0,1.054958750E-1,1.432357073E0,2.304734945E0,2.357430458E-1
1.105238750E-1,-9.337582397E-1,-8.546776886E0,2.644251251E0,1.155518750E-1,1.865710497E0,1.851092339E0,4.194712639E-1
1.205798750E-1,-9.833052063E-1,-9.722132721E0,1.533860321E0,1.256078750E-1,1.882031083E0,1.248557806E0,4.850901961E-1
1.306358750E-1,-1.135987701E0,-1.159982803E1,1.164278870E0,1.356638750E-1,1.498337269E0,5.316362381E-1,2.684481144E-1
1.406918750E-1,-7.575746155E-1,-1.230680786E1,1.188827820E0,1.457198750E-1,9.913690686E-1,-1.494328231E-1,-1.351451576E-1
1.507478750E-1,2.140548706E-2,-1.148696274E1,2.196981354E0,1.557758750E-1,7.115803361E-1,-2.922719121E-1,-5.752518177E-1
1.608038750E-1,5.255570984E-1,-9.284742279E0,4.157903595E0,1.658318750E-1,8.172420263E-1,-1.735299267E-2,-9.012842178E-1
1.708598750E-1,7.298822021E-1,-7.875123596E0,4.695286102E0,1.758878750E-1,1.235027790E0,1.103104800E-1,-1.007515073E0
1.809148750E-1,8.225395203E-1,-8.573421478E0,3.196452942E0,1.859428750E-1,1.995055795E0,2.073419392E-1,-7.377602458E-1
1.909708750E-1,-1.315763855E-1,-9.178163910E0,-4.429289246E-1,1.959988750E-1,2.625648499E0,2.435791492E-1,-2.321605086E-1
2.010268750E-1,-1.448986816E0,-9.073082428E0,-2.575394440E0,2.060548750E-1,2.611157417E0,6.379581690E-1,-8.207886666E-2
2.110828750E-1,-3.202141113E0,-7.754624176E0,-5.215155029E-1,2.161108750E-1,2.115836382E0,1.346476078E0,-1.724623144E-1
2.211388750E-1,-4.086502075E0,-6.674320679E0,1.556463318E0,2.261668750E-1,1.589520454E0,2.015962362E0,-2.692418396E-1
2.311948750E-1,-4.374203796E0,-6.660399628E0,1.851499786E0,2.362228750E-1,1.284592509E0,2.434908628E0,-3.302361369E-1
2.412508750E-1,-4.131109314E0,-7.226672058E0,1.321751404E0,2.462788750E-1,1.180720091E0,2.388843298E0,-1.950964481E-1
2.513068750E-1,-3.275488586E0,-8.081394653E0,5.269042969E-2,2.563348750E-1,1.123375177E0,1.947833776E0,2.396184951E-2
2.613628750E-1,-2.485581207E0,-8.418044586E0,-7.361691284E-1,2.663898750E-1,1.110614657E0,1.468351603E0,8.319161832E-2
2.714178750E-1,-2.242786102E0,-8.502019958E0,-5.611830139E-1,2.764458750E-1,1.142411709E0,9.655718207E-1,7.874384522E-2
2.814738750E-1,-1.400787048E0,-8.996741180E0,-5.776487732E-1,2.865018750E-1,1.175886273E0,3.448587954E-1,1.061520353E-1
2.915298750E-1,-4.846920776E-1,-9.383387146E0,-8.922944641E-1,2.965578750E-1,1.191708684E0,-1.086913049E-1,2.406747192E-1
3.015858750E-1,1.420545959E-1,-9.597442017E0,-1.311273193E0,3.066138750E-1,1.291119695E0,-4.196723402E-1,3.758684993E-1
3.116418750E-1,9.071136475E-1,-9.771230621E0,-2.142794037E0,3.166698750E-1,1.401216507E0,-5.951666832E-1,4.662104249E-1
3.216978750E-1,1.615889740E0,-9.740993500E0,-2.757864990E0,3.267258750E-1,1.407757998E0,-5.296944380E-1,5.200915337E-1
3.317538750E-1,2.212698669E0,-9.636959839E0,-2.593656464E0,3.367818750E-1,1.291829109E0,-1.637116522E-1,5.510892868E-1
3.418098750E-1,2.612068176E0,-9.521998901E0,-1.734293518E0,3.468378750E-1,1.128633618E0,3.602855206E-1,5.570366383E-1
3.518648750E-1,2.659968567E0,-9.137448578E0,-9.478289795E-1,3.568928750E-1,1.014723897E0,7.696536183E-1,5.214880109E-1
3.619208750E-1,2.314636688E0,-8.823551331E0,-8.036787415E-1,3.669488750E-1,9.923518300E-1,9.838540554E-1,4.466214776E-1
3.719768750E-1,1.277742920E0,-8.775052185E0,-8.815168762E-1,3.770048750E-1,9.905495048E-1,9.280378819E-1,3.893185258E-1
3.820328750E-1,4.348457336E-1,-9.024283905E0,-1.480870514E0,3.870608750E-1,9.687815905E-1,6.202624440E-1,4.065326452E-1
3.920888750E-1,2.634521484E-1,-9.337283020E0,-2.059417419E0,3.971168750E-1,8.900542259E-1,2.704424858E-1,4.062232077E-1
4.021448750E-1,3.058140564E-1,-9.350455627E0,-1.930685120E0,4.071728750E-1,7.794515491E-1,4.495479167E-2,3.565214276E-1
4.122008750E-1,3.541635132E-1,-9.416318665E0,-1.314716034E0,4.172288750E-1,6.612968445E-1,-6.894601882E-2,2.762913704E-1
4.222568750E-1,3.942800903E-1,-9.796228638E0,-6.427633667E-1,4.272848750E-1,5.386854410E-1,-1.015526950E-1,1.809022725E-1
4.323128750E-1,4.426295471E-1,-1.035441788E1,-5.837860107E-2,4.373398750E-1,4.580051601E-1,-5.070127919E-2,7.751480490E-2
4.423678750E-1,4.685256958E-1,-1.093640762E1,3.555107117E-1,4.473958750E-1,4.434501827E-1,6.900034845E-2,-2.337905206E-2
4.524238750E-1,5.384303284E-1,-1.146914978E1,5.523513794E-1,4.574518750E-1,4.119798541E-1,2.055583894E-1,-1.096870303E-1
4.624798750E-1,7.086264038E-1,-1.200413727E1,6.309379578E-1,4.675067917E-1,2.871380448E-1,2.605324388E-1,-1.604729742E-1
4.725347917E-1,9.506730652E-1,-1.257430161E1,7.008425903E-1,4.775627917E-1,1.397873908E-1,2.163407207E-1,-1.432863772E-1
4.825907917E-1,1.272054749E0,-1.327738953E1,7.288343811E-1,4.876187917E-1,8.528152853E-2,1.134912968E-1,-5.168695748E-2
4.926467917E-1,1.708846436E0,-1.392703857E1,2.285746765E-1,4.976747917E-1,1.706361175E-1,6.265162677E-2,8.309960365E-2
5.027027917E-1,2.085163879E0,-1.398616562E1,-7.244934082E-1,5.077307917E-1,3.081343472E-1,1.459225416E-1,1.628032178E-1
5.127587917E-1,2.017504578E0,-1.324281143E1,-1.535656586E0,5.177867917E-1,3.557204902E-1,3.760767281E-1,1.023547649E-1
5.228137917E-1,1.579964447E0,-1.216819611E1,-1.699865112E0,5.278417917E-1,2.763899863E-1,7.845797539E-1,-2.953055687E-2
5.328697917E-1,1.310375061E0,-1.157917099E1,-1.411414948E0,5.378977917E-1,9.901741147E-2,1.188793063E0,-1.464459747E-1
5.429257917E-1,1.312620392E0,-1.160596527E1,-1.613794098E0,5.479537917E-1,-1.821660548E-1,1.397523880E0,-2.193486691E-1
5.529817917E-1,1.437011719E0,-1.170296356E1,-2.405198364E0,5.580097917E-1,-6.350627542E-1,1.314187050E0,-2.745007575E-1
5.630377917E-1,1.650767212E0,-1.204619980E1,-2.931354218E0,5.680657917E-1,-1.124957681E0,9.955168962E-1,-2.992955744E-1
5.730937917E-1,1.484163666E0,-1.284164566E1,-2.635868683E0,5.781217917E-1,-1.480952740E0,5.683922172E-1,-3.074933290E-1
5.831497917E-1,1.121767273E0,-1.332484085E1,-2.177970886E0,5.881777917E-1,-1.797016740E0,1.874454021E-1,-3.419479728E-1
5.932057917E-1,1.132395172E0,-1.294597870E1,-1.226699066E0,5.982337917E-1,-2.025551081E0,-8.282002807E-2,-4.245594740E-1
6.032607917E-1,8.487350464E-1,-1.164727936E1,2.050735474E-2,6.082887917E-1,-2.101058960E0,-2.282935977E-1,-5.635575652E-1
6.133167917E-1,-4.567002869E-1,-9.986782379E0,4.296066284E-1,6.183447917E-1,-2.098057508E0,-4.628840685E-1,-7.163718939E-1
6.233727917E-1,-2.403102722E0,-8.728049927E0,-4.312532043E-1,6.284007917E-1,-2.096330166E0,-8.020227551E-1,-7.991716862E-1
6.334287917E-1,-3.966751099E0,-8.145461426E0,-9.919871521E-1,6.384567917E-1,-2.143545389E0,-1.308107495E0,-8.118638396E-1
6.434847917E-1,-4.627327423E0,-8.178392944E0,-5.029541016E-1,6.485127917E-1,-2.449182749E0,-1.173185587E0,-6.616780758E-1
6.535407917E-1,-5.199886780E0,-9.898466034E0,2.199076996E0,6.585687917E-1,-2.746386766E0,-7.255447507E-1,-6.544592381E-1
6.635967917E-1,-4.641398163E0,-1.101694016E1,4.120481415E0,6.686247917E-1,-3.003224373E0,-5.762930214E-2,-8.076836467E-1
6.736527917E-1,-4.091591492E0,-1.219469101E1,5.229525146E0,6.786807917E-1,-3.111918449E0,8.219628930E-1,-8.919299245E-1
6.837087917E-1,-4.305346985E0,-1.533336411E1,5.854625244E0,6.887357917E-1,-2.927578449E0,1.765501499E0,-6.688718200E-1
6.937637917E-1,-5.009632416E0,-1.839210342E1,5.703589325E0,6.987917917E-1,-2.527839422E0,2.502344608E0,-1.396916658E-1
7.038197917E-1,-5.949228516E0,-2.032039352E1,3.715723114E0,7.088477917E-1,-1.969694614E0,2.530939341E0,4.128697515E-1
7.138757917E-1,-6.875202942E0,-1.967972580E1,-2.123035126E0,7.189037917E-1,-1.483281732E0,1.680251598E0,5.632153153E-1
7.239317917E-1,-6.799610138E0,-1.609318405E1,-7.931256866E0,7.289597917E-1,-1.361191988E0,7.339724898E-1,4.074925780E-1
7.339877917E-1,-5.811814270E0,-1.348395996E1,-8.485703888E0,7.390157917E-1,-1.544352055E0,5.822594166E-1,2.444597036E-1
7.440437917E-1,-4.554728394E0,-1.185609512E1,-4.728217621E0,7.490717917E-1,-1.721210122E0,1.290329218E0,9.038092941E-2
7.540997917E-1,-3.765270081E0,-1.012195129E1,-6.001020813E-1,7.591277917E-1,-1.636615872E0,2.368857145E0,-2.232763022E-1
7.641557917E-1,-2.899470520E0,-8.024363251E0,1.004261627E0,7.691837917E-1,-1.492892861E0,2.883665085E0,-5.071572661E-1
7.742117917E-1,-2.078128510E0,-7.018904114E0,-1.033600616E0,7.792387917E-1,-1.306658864E0,2.236565590E0,-7.046180964E-1
7.842667917E-1,-8.884025574E-1,-6.579567719E0,-3.551364899E0,7.892947917E-1,-1.059902668E0,1.157028556E0,-9.810797572E-1
7.943227917E-1,-7.063810730E-1,-6.139632568E0,-3.446433105E0,7.993507917E-1,-4.238982499E-1,-1.310103655E0,-1.202814698E0
8.043787917E-1,-4.516108704E-1,-6.796017609E0,-4.943619690E0,8.094067917E-1,-6.657995582E-1,-2.753980160E0,-1.265059114E0
8.144347917E-1,5.860313416E-1,-6.402635651E0,-1.086141357E0,8.194627917E-1,-1.504353166E0,-3.581532001E0,-1.134581566E0
8.244907917E-1,8.445437622E-1,-5.848937073E0,2.710263977E0,8.295187917E-1,-2.077704430E0,-3.762142897E0,-8.189306855E-1
8.345467917E-1,1.492546234E0,-5.479954376E0,4.915478210E0,8.395747917E-1,-2.300095320E0,-3.399022818E0,-5.308943391E-1
8.446027917E-1,1.981429596E0,-5.328319702E0,5.157824249E0,8.496307917E-1,-2.512067080E0,-3.108183622E0,-2.887517214E-1
8.546587917E-1,2.054178314E0,-5.164560242E0,4.355343018E0,8.596857917E-1,-2.627953291E0,-2.696131945E0,-1.258653402E-1
8.647137917E-1,1.424138489E0,-5.024900665E0,3.387306061E0,8.697417917E-1,-2.556610107E0,-2.446396828E0,-9.271777421E-2
8.747697917E-1,4.137396240E-1,-5.019661560E0,1.382225647E0,8.797977917E-1,-2.191308022E0,-2.422499418E0,-1.790120751E-1
8.848257917E-1,-5.379812622E-1,-5.118456116E0,-5.816903687E-1,8.898537917E-1,-1.607359529E0,-2.550349712E0,-3.697314262E-1
8.948817917E-1,-1.690135345E0,-5.035229187E0,-2.146835632E0,8.999097917E-1,-1.000306249E0,-2.649485588E0,-5.505579710E-1
9.049377917E-1,-2.440824280E0,-4.891078949E0,-2.335443420E0,9.099657917E-1,-4.324487448E-1,-2.692476749E0,-6.892905831E-1
9.149937917E-1,-2.609972534E0,-4.404740295E0,-1.830543365E0,9.200217917E-1,7.033368200E-2,-2.575143576E0,-7.861601710E-1
9.250497917E-1,-2.543660431E0,-3.885919189E0,-7.442523193E-1,9.300777917E-1,5.363320112E-1,-2.318110704E0,-8.852025867E-1
9.351057917E-1,-2.483934631E0,-3.188818817E0,-4.730163574E-2,9.401337917E-1,9.880339503E-1,-2.068124533E0,-9.009190798E-1
9.451617917E-1,-2.279160461E0,-2.602637787E0,-3.336561584E-1,9.501887917E-1,1.418858767E0,-1.905719399E0,-8.535462618E-1
9.552167917E-1,-1.902843018E0,-1.826352081E0,-9.301657104E-1,9.602447917E-1,1.741471767E0,-1.960608006E0,-6.767461896E-1
9.652727917E-1,-1.631307678E0,-2.503543854E0,-2.210453339E0,9.703007917E-1,1.936866522E0,-2.093346596E0,-4.046813846E-1
9.753287917E-1,-1.670975189E0,-3.921245728E0,-3.175047455E0,9.803567917E-1,2.007363319E0,-2.099058151E0,-1.629352421E-1
9.853847917E-1,-1.709295502E0,-5.164260864E0,-3.291355591E0,9.904127917E-1,2.091920137E0,-1.663475990E0,1.104925647E-1
9.954407917E-1,-1.664538574E0,-7.129075012E0,-2.468666382E0,1.000468792E0,2.193335772E0,-9.104101062E-1,2.953155935E-1
1.005496792E0,-2.027384033E0,-9.244326324E0,-1.701212311E0,1.010524792E0,2.398748159E0,3.722391129E-1,2.880036235E-1
1.015552792E0,-2.795436859E0,-1.066786606E1,-2.514770508E-1,1.020580792E0,2.421953201E0,1.240315557E0,1.002659276E-2
1.025608792E0,-3.525019684E0,-1.143023071E1,-3.550766144E0,1.030636792E0,1.897600889E0,1.120144129E0,-1.822208762E-1
1.035663792E0,-4.680766296E0,-1.454719894E1,-9.976453857E0,1.040691792E0,5.439361930E-1,-3.623492420E-1,-1.013269648E-2
1.045719792E0,-5.279670868E0,-1.991758118E1,-1.710807358E1,1.050747792E0,-1.110982537E0,-2.220266104E0,3.166331649E-1
1.055775792E0,-4.798122253E0,-2.359273865E1,-1.830453552E1,1.060803792E0,-2.385267019E0,-2.711642504E0,2.971563935E-1
1.065831792E0,-3.125650177E0,-2.013777328E1,-1.417073181E1,1.070859792E0,-2.659354448E0,-2.385365009E0,7.229185104E-2
1.075887792E0,-1.260379028E0,-1.488848923E1,-1.231384323E1,1.080915792E0,-2.061239719E0,-1.932066202E0,-7.097718120E-2
1.085943792E0,-3.954776001E-1,-1.130688721E1,-9.348060608E0,1.090971792E0,-1.497584939E0,-1.636375189E0,-3.256038725E-1
1.095999792E0,-9.669891357E-2,-7.992629242E0,-6.473588104E0,1.101027792E0,-1.170816660E0,-1.540686488E0,-4.953513741E-1
1.106055792E0,9.804611206E-2,-6.574627991E0,-4.966671753E0,1.111083792E0,-8.884861469E-1,-1.322180748E0,-5.334079266E-1
1.116111792E0,4.950205994E-1,-5.739514618E0,-4.282444611E0,1.121138792E0,-6.132044792E-1,-9.919933081E-1,-4.585387111E-1
1.126166792E0,7.816744995E-1,-4.952601013E0,-4.840035095E0,1.131194792E0,-3.516109884E-1,-6.172279716E-1,-3.272946775E-1
1.136222792E0,5.607339478E-1,-3.911665649E0,-5.332211609E0,1.141250792E0,-1.052748337E-1,-2.981721461E-1,-1.030369699E-1
1.146278792E0,-1.498683472E0,-3.867208099E0,-5.218448181E0,1.151306792E0,2.228836119E-1,-4.767921567E-2,1.447068006E-1
1.156334792E0,-4.334835663E0,-6.760092316E0,-4.374054108E0,1.161362792E0,6.173188090E-1,2.040035576E-1,4.295246899E-1
1.166390792E0,-5.779032440E0,-1.074809921E1,-3.026705933E0,1.171418792E0,1.077780128E0,7.194021344E-1,5.618891716E-1
1.176446792E0,-7.345375214E0,-1.394844406E1,-1.040336609E-1,1.181474792E0,1.528929114E0,1.385774851E0,6.998463869E-1
1.186502792E0,-9.144483948E0,-1.797836380E1,2.279010773E0,1.191530792E0,1.525447845E0,1.688815713E0,8.478837609E-1
1.196558792E0,-1.063732956E1,-2.075598770E1,8.720864868E-1,1.201586792E0,7.897652984E-1,1.488707423E0,5.104996562E-1
1.206614792E0,-8.849297791E0,-1.820619003E1,7.752378845E-1,1.211642792E0,3.227398098E-1,1.762668848E0,-9.277022630E-2
1.216669792E0,-2.828518066E0,-1.326945602E1,6.568191376E0,1.221697792E0,4.066842794E-1,1.882184863E0,-4.553064406E-1
1.226725792E0,5.939648438E-1,-1.056443115E1,7.709418182E0,1.231753792E0,4.320849776E-1,1.672511220E0,-4.089266658E-1
1.236781792E0,9.295669556E-2,-9.130862274E0,3.982618103E0,1.241809792E0,3.135498762E-1,1.530641556E0,-2.027139068E-1
1.246837792E0,-7.035369873E-1,-6.929689636E0,2.862946472E0,1.251865792E0,2.637695372E-1,1.516815305E0,2.150374092E-2
1.256893792E0,-1.565444641E0,-5.692512360E0,3.987707520E0,1.261921792E0,4.292240739E-1,1.572730422E0,2.120788991E-1
1.266949792E0,-2.274819489E0,-5.570516052E0,3.581452332E0,1.271977792E0,7.528157234E-1,1.760446429E0,3.235247433E-1
1.277005792E0,-2.314786377E0,-5.990542603E0,2.970273285E0,1.282033792E0,1.239458323E0,2.208240747E0,4.452480078E-1
1.287061792E0,-2.365081787E0,-7.001689911E0,3.360212402E0,1.292089792E0,1.754908085E0,2.793237925E0,6.513468623E-1
1.297117792E0,-2.539918213E0,-8.091274109E0,3.797453156E0,1.302144792E0,2.137162924E0,3.479972839E0,1.001418591E0
1.307172792E0,-2.716251526E0,-9.147477722E0,3.816613312E0,1.312200792E0,2.360074997E0,4.015801430E0,1.370238662E0
1.317228792E0,-2.788102112E0,-9.467063141E0,2.951711884E0,1.322256792E0,2.369050503E0,4.362192631E0,1.622225642E0
1.327284792E0,-2.670297089E0,-9.315877533E0,2.724783783E0,1.332312792E0,1.952144980E0,4.269065380E0,1.617940903E0
1.337340792E0,-2.728975067E0,-1.050979477E1,2.269730072E0,1.342368792E0,1.033483028E0,3.222133636E0,1.256166935E0
1.347396792E0,-2.774031372E0,-1.317829559E1,1.558858337E0,1.352424792E0,4.569434822E-1,2.198362589E0,6.517380476E-1
1.357452792E0,-1.761237488E0,-1.210068649E1,2.298320618E0,1.362480792E0,4.680771232E-1,1.211477399E0,1.758792102E-1
1.367508792E0,-4.070036316E-1,-8.603359222E0,2.097737732E0,1.372536792E0,1.103504062E0,-1.450356841E-1,-1.301941574E-1
1.377564792E0,-7.753875732E-2,-7.452252960E0,-2.173180847E0,1.382592792E0,2.017164230E0,-1.869770527E0,-1.254508048E-1
1.387620792E0,3.278182983E-2,-8.439749451E0,-4.957989807E0,1.392647792E0,2.457486153E0,-2.836982489E0,-9.881813079E-2
1.397675792E0,1.484912109E-1,-8.258626099E0,-2.326911163E0,1.402703792E0,2.489599943E0,-3.118145704E0,-2.919282392E-2
1.407731792E0,7.843688965E-2,-7.457042999E0,-1.184935913E0,1.412759792E0,2.268264055E0,-2.673379183E0,-6.586214900E-2
1.417787792E0,-3.764671326E-1,-6.627019043E0,-4.420307922E-1,1.422815792E0,1.769108534E0,-1.541605234E0,-1.938047856E-1
1.427843792E0,-8.746311951E-1,-7.452402649E0,7.761360168E-1,1.432871792E0,1.203635573E0,-1.709015071E-1,-1.798639446E-1
1.437899792E0,-8.608598328E-1,-9.132508850E0,6.917115784E-1,1.442927792E0,8.232157826E-1,7.722845674E-1,-9.440191090E-2
1.447955792E0,-5.120851135E-1,-1.024230103E1,-7.140151978E-1,1.452983792E0,7.016347647E-1,1.373322248E0,-5.454211682E-2
1.458011792E0,-5.191204834E-1,-1.075049423E1,-1.392853546E0,1.463039792E0,7.693638802E-1,1.638981342E0,-7.182233781E-2
1.468067792E0,-2.891986084E-1,-1.063119232E1,-2.191592560E0,1.473095125E0,9.737162590E-1,1.576130986E0,-9.869416058E-2
1.478123125E0,1.883084106E-1,-1.039408539E1,-2.893033905E0,1.483150125E0,1.180242419E0,1.290787458E0,-1.176191941E-1
1.488178125E0,6.762936401E-1,-1.015997223E1,-3.009491730E0,1.493206125E0,1.275417089E0,8.840551972E-1,-1.272630244E-1
1.498234125E0,1.108894043E0,-9.464668121E0,-2.924169159E0,1.503262125E0,1.203153968E0,3.884475231E-1,-1.512830108E-1
1.508290125E0,1.524130554E0,-8.766819305E0,-2.786904602E0,1.513318125E0,1.085967898E0,-9.490397573E-2,-1.192326695E-1
1.518346125E0,1.741179199E0,-8.524922333E0,-2.388882294E0,1.523374125E0,1.021568775E0,-4.764235020E-1,3.750432655E-2
1.528402125E0,1.674118652E0,-8.672216034E0,-1.954335938E0,1.533430125E0,1.008973122E0,-7.073706985E-1,2.526510060E-1
1.538458125E0,1.406624908E0,-8.728049927E0,-1.545685730E0,1.543486125E0,9.535230398E-1,-6.464228630E-1,3.869890869E-1
1.548514125E0,8.393046570E-1,-8.529862061E0,-8.414002991E-1,1.553542125E0,8.615545034E-1,-3.508691788E-1,4.209630489E-1
1.558570125E0,3.209326172E-1,-8.456215210E0,-4.731660461E-1,1.563598125E0,8.251736760E-1,-4.373465478E-2,4.381553829E-1
1.568626125E0,-8.202941895E-2,-8.556506653E0,-5.956114197E-1,1.573654125E0,8.636376858E-1,1.533294022E-1,4.211415052E-1
1.578681125E0,-4.454736328E-1,-8.496780853E0,-8.445437622E-1,1.583709125E0,9.309296012E-1,2.219075114E-1,3.942525983E-1
1.588737125E0,-6.987469482E-1,-8.573720856E0,-1.120869141E0,1.593765125E0,9.748962522E-1,1.946433932E-1,3.660787344E-1
1.598793125E0,-7.402107239E-1,-8.743916931E0,-1.358275452E0,1.603821125E0,9.850785136E-1,1.130318493E-1,3.252606988E-1
1.608849125E0,-5.400769043E-1,-9.059161377E0,-1.482816467E0,1.613877125E0,9.225304127E-1,5.668921396E-2,2.757767737E-1
1.618905125E0,-1.068777466E-1,-9.300010529E0,-1.322649536E0,1.623933125E0,7.490422726E-1,3.357418999E-2,2.153898180E-1
1.628961125E0,2.085163879E-1,-9.266779633E0,-9.014254761E-1,1.633989125E0,5.100339055E-1,1.533712912E-2,1.655711234E-1
1.639017125E0,4.326004028E-1,-9.306746521E0,-4.941224670E-1,1.644045125E0,3.111357093E-1,-4.018507898E-2,1.156261340E-1
1.649073125E0,4.758604431E-1,-9.533973999E0,-3.591032410E-1,1.654101125E0,2.309077084E-1,-7.338777184E-2,4.137640819E-2
1.659129125E0,2.260299683E-1,-9.696835327E0,-3.017724609E-1,1.664157125E0,2.464338839E-1,8.345056325E-3,-5.202258378E-2
1.669184125E0,-2.338137817E-1,-1.008707382E1,-2.381547546E-1,1.674212125E0,2.543610334E-1,1.323945671E-1,-1.060285568E-1
1.679240125E0,-4.346960449E-1,-1.082578766E1,-1.830693054E-1,1.684268125E0,1.674651653E-1,1.887051612E-1,-1.006690487E-1
1.689296125E0,-2.406994629E-1,-1.172915909E1,-2.665956116E-1,1.694324125E0,4.048165306E-2,1.692803353E-1,-6.001589075E-2
1.699352125E0,1.561253357E-1,-1.238629257E1,-2.942880249E-1,1.704380125E0,-6.341483444E-2,7.245933264E-2,5.932933651E-3
1.709408125E0,7.499404907E-1,-1.296124695E1,-5.119354248E-1,1.714436125E0,-1.021787375E-1,-3.570682183E-2,9.597413987E-2
1.719464125E0,1.439855804E0,-1.340432556E1,-9.764195251E-1,1.724492125E0,-8.028814942E-2,-4.990797490E-2,1.645267755E-1
1.729520125E0,2.185455322E0,-1.342363541E1,-1.659598846E0,1.734548125E0,-9.168514609E-2,4.862339050E-2,1.263495535E-1
1.739576125E0,2.967728577E0,-1.318652847E1,-2.207160187E0,1.744604125E0,-2.517496645E-1,2.171048820E-1,-6.492313743E-2
1.749632125E0,3.773652649E0,-1.303234909E1,-2.060315552E0,1.754660125E0,-6.107144952E-1,2.340966463E-1,-4.155181646E-1
1.759688125E0,4.473597107E0,-1.348485809E1,-1.879940643E0,1.764715125E0,-9.805508256E-1,7.757690270E-3,-8.018975258E-1
1.769743125E0,4.617298279E0,-1.444421310E1,-1.772763519E0,1.774771125E0,-1.217351317E0,-2.808988690E-1,-1.074386358E0
1.779799125E0,4.233346710E0,-1.493459335E1,-1.561103668E0,1.784827125E0,-1.389787316E0,-5.897023678E-1,-1.190578938E0
1.789855125E0,3.489543457E0,-1.448642532E1,-1.617686005E0,1.794883125E0,-1.629162431E0,-8.673688769E-1,-1.139901996E0
1.799911125E0,2.177671509E0,-1.380174911E1,-1.667831726E0,1.804939125E0,-1.830946207E0,-1.157362938E0,-9.842535257E-1
1.809967125E0,5.869294739E-1,-1.278431488E1,-1.476828918E0,1.814995125E0,-2.069440126E0,-1.100317001E0,-8.674520850E-1
1.820023125E0,-1.889969788E0,-1.163799866E1,-6.683601379E-1,1.825051125E0,-2.433729649E0,-7.070540786E-1,-7.004119158E-1
1.830079125E0,-4.096231842E0,-1.097996704E1,-3.279679871E-1,1.835107125E0,-2.810769558E0,-3.767472506E-1,-4.004315734E-1
1.840135125E0,-5.237758026E0,-1.048165329E1,-4.056564331E-2,1.845163125E0,-3.004840612E0,-2.108642310E-1,-5.711191893E-2
1.850191125E0,-5.368735657E0,-9.959838409E0,1.212029572E0,1.855219125E0,-2.942779303E0,6.111295894E-2,2.198813260E-1
1.860246125E0,-5.073699188E0,-1.048973648E1,3.146905975E0,1.865274125E0,-2.805674791E0,6.255187988E-1,3.635313213E-1
1.870302125E0,-5.454357605E0,-1.246053818E1,4.961881714E0,1.875330125E0,-2.669770956E0,1.380626202E0,3.998973370E-1
1.880358125E0,-6.650071106E0,-1.573842178E1,6.069428558E0,1.885386125E0,-2.533591270E0,2.166963100E0,4.673280716E-1
1.890414125E0,-8.183632050E0,-1.825259354E1,6.386918335E0,1.895442125E0,-2.346260548E0,2.819024801E0,5.958191752E-1
1.900470125E0,-9.280550995E0,-1.848700607E1,5.108726349E0,1.905498125E0,-2.110391140E0,2.752025366E0,6.612096429E-1
1.910526125E0,-9.576036530E0,-1.646186737E1,-7.613168335E-1,1.915554125E0,-1.662165284E0,1.289018035E0,4.635405242E-1
1.920582125E0,-8.725355530E0,-1.324924805E1,-9.035510559E0,1.925610125E0,-1.291122913E0,-2.838434577E-1,1.611295044E-1
1.930638125E0,-7.177873535E0,-1.077354630E1,-9.354796600E0,1.935666125E0,-1.141923308E0,-4.566599727E-1,-3.118614852E-1
1.940694125E0,-6.255192261E0,-8.677455139E0,-4.219874725E0,1.945722125E0,-1.256817460E0,5.652298927E-1,-6.629673839E-1
1.950749125E0,-4.161196747E0,-8.583001556E0,-1.056353302E0,1.955777125E0,-1.407683134E0,1.709226370E0,-6.823745966E-1
1.960805125E0,-1.770069122E0,-8.828491058E0,-6.994953918E-1,1.965833125E0,-1.426535964E0,2.494588137E0,-6.808382273E-1
1.970861125E0,-6.168672180E-1,-7.390132141E0,-7.420069885E-1,1.975889125E0,-1.148027897E0,2.479972363E0,-8.367942572E-1
1.980917125E0,-1.326242065E-1,-6.285279694E0,-1.754800873E0,1.985945125E0,-4.027135670E-1,2.302108258E-1,-9.772508144E-1
1.990973125E0,-7.825726318E-1,-6.771169281E0,-5.359005890E0,1.996001125E0,-2.460448742E-1,-2.437048197E0,-1.471521020E0
2.001029125E0,1.093176727E0,-5.845643921E0,-4.273014221E0,2.006057125E0,-8.502396345E-1,-3.287151814E0,-1.696495295E0
2.011085125E0,1.961970062E0,-5.816304932E0,7.036866760E-1,2.016113125E0,-1.853503466E0,-3.805709600E0,-1.441732764E0
2.021141125E0,2.444416809E0,-6.429130554E0,3.901187439E0,2.026169125E0,-2.445023775E0,-3.472077847E0,-9.464743137E-1
2.031197125E0,2.742297363E0,-6.236481171E0,6.066285095E0,2.036225125E0,-2.692735672E0,-2.919430256E0,-5.725718737E-1
2.041253125E0,2.799628143E0,-5.404810638E0,5.366190948E0,2.046280125E0,-2.765609980E0,-2.441641092E0,-3.501986861E-1
2.051308125E0,2.537672882E0,-5.055886230E0,3.701352997E0,2.056336125E0,-2.703711271E0,-2.304093599E0,-2.051661313E-1
2.061364125E0,1.663939819E0,-5.202880554E0,1.499581604E0,2.066392125E0,-2.471944094E0,-2.296649456E0,-1.666336060E-1
2.071420125E0,4.692741394E-1,-5.206323395E0,-1.445993042E-1,2.076448125E0,-1.961962342E0,-2.509187698E0,-2.696510553E-1
2.081476125E0,-8.529263306E-1,-5.086123352E0,-1.760638733E0,2.086504125E0,-1.282419443E0,-2.686333895E0,-3.479052186E-1
2.091532125E0,-1.798210602E0,-5.101241913E0,-2.403701477E0,2.096560125E0,-6.195512414E-1,-2.709056139E0,-4.585664868E-1
2.101588125E0,-2.352657623E0,-4.714895325E0,-2.202968903E0,2.106616125E0,-5.100040510E-2,-2.656506062E0,-5.734027624E-1
2.111644125E0,-2.868934021E0,-4.316124573E0,-1.548829193E0,2.116672125E0,3.973629773E-1,-2.499435902E0,-6.782141328E-1
2.121700125E0,-3.277434540E0,-3.876189423E0,-4.839436340E-1,2.126728125E0,7.336579561E-1,-2.268939972E0,-7.683370709E-1
2.131756125E0,-3.432961121E0,-3.588787079E0,2.477348328E-1,2.136784125E0,9.796522856E-1,-2.044877768E0,-7.709397674E-1
2.141811125E0,-3.237467651E0,-3.490740967E0,3.339555359E-1,2.146839125E0,1.168016315E0,-1.929514766E0,-6.744529605E-1
2.151867125E0,-2.741249542E0,-3.388503571E0,-4.908293152E-1,2.156895125E0,1.328690648E0,-1.892592430E0,-5.643278360E-1
2.161923125E0,-2.143243103E0,-3.233426056E0,-1.512454834E0,2.166951125E0,1.561155200E0,-1.712786913E0,-4.583783448E-1
2.171979125E0,-1.825903015E0,-3.193758545E0,-2.037263489E0,2.177007125E0,1.830014348E0,-1.494376063E0,-2.571272552E-1
2.182035125E0,-1.730251923E0,-3.796405334E0,-2.893333282E0,2.187063125E0,2.086397171E0,-1.384551406E0,6.553487852E-3
2.192091125E0,-1.831142120E0,-5.055287476E0,-3.921096039E0,2.197119125E0,2.336933374E0,-1.091377139E0,2.912328839E-1
2.202147125E0,-1.954934692E0,-6.751260681E0,-3.762875061E0,2.207175125E0,2.533944130E0,-5.482833385E-1,5.343996286E-1
2.212203125E0,-2.199825439E0,-8.863518219E0,-3.468137970E0,2.217231125E0,2.665809631E0,2.705761492E-1,6.124600768E-1
2.222259125E0,-2.510429535E0,-1.077668976E1,-3.022065582E0,2.227287125E0,2.594561577E0,8.262901902E-1,5.479893088E-1
2.232315125E0,-3.361110535E0,-1.314027466E1,-4.911436615E0,2.237343125E0,1.839286447E0,6.908322573E-1,4.397922456E-1
2.242371125E0,-4.706812134E0,-1.644689850E1,-9.140741730E0,2.247398125E0,3.288896084E-1,-1.268325448E-1,4.804826081E-1
2.252426125E0,-6.234235840E0,-2.109353577E1,-1.266920425E1,2.257454125E0,-1.198221564E0,-1.200965047E0,5.717363954E-1
2.262482125E0,-6.914870453E0,-2.341820160E1,-1.398841095E1,2.267510125E0,-2.359416246E0,-1.697364211E0,3.621812165E-1
2.272538125E0,-6.580765228E0,-1.935924225E1,-1.399065628E1,2.277566125E0,-2.667395830E0,-1.839520097E0,-4.848754033E-4
2.282594125E0,-5.278772736E0,-1.440185120E1,-1.393212799E1,2.287622125E0,-2.121004820E0,-1.971573710E0,-1.175632924E-1
2.292650125E0,-2.867586823E0,-1.214274902E1,-1.169308411E1,2.297678125E0,-1.488710523E0,-1.838462234E0,-2.874594927E-1
2.302706125E0,-1.370250549E0,-9.554481354E0,-7.721393280E0,2.307734125E0,-1.234226704E0,-1.851860166E0,-4.310990572E-1
2.312762125E0,-4.210743713E-1,-7.918982391E0,-5.909710693E0,2.317790125E0,-1.163167953E0,-1.833028197E0,-5.241720080E-1
2.322818125E0,4.430786133E-1,-6.896458740E0,-4.761149139E0,2.327846125E0,-1.011266470E0,-1.423983335E0,-5.323003531E-1
2.332874125E0,8.120613098E-1,-5.742209015E0,-4.213288422E0,2.337902125E0,-7.201246619E-1,-6.853170395E-1,-4.097425342E-1
2.342929125E0,4.906796265E-1,-4.173770599E0,-4.700076141E0,2.347957125E0,-3.615197837E-1,-1.125215068E-1,-2.204282731E-1
2.352985125E0,-3.926335144E-1,-2.476749573E0,-5.939349060E0,2.358013125E0,5.989803001E-2,1.688819379E-1,-6.588637084E-2
2.363041125E0,-1.958676910E0,-1.701362000E0,-5.907764740E0,2.368069125E0,5.345554948E-1,2.027478069E-1,1.032418199E-2
2.373097125E0,-3.643872528E0,-3.201392670E0,-4.830754395E0,2.378125125E0,1.044864535E0,1.195035055E-1,1.773078293E-1
2.383153125E0,-4.925956421E0,-7.215295715E0,-3.694916382E0,2.388181125E0,1.516947508E0,2.294867188E-1,3.195493817E-1
2.393209125E0,-6.604565735E0,-1.107442062E1,-1.600022736E0,2.398237125E0,1.854102373E0,7.475455999E-1,4.162732363E-1
2.403265125E0,-8.545429688E0,-1.487711288E1,1.322499847E0,2.408293125E0,1.780217409E0,1.499688268E0,5.074663758E-1
2.413321125E0,-9.463769989E0,-1.894041321E1,4.010609894E0,2.418349125E0,1.432811737E0,2.258463144E0,3.833774626E-1
2.423377125E0,-8.171656952E0,-1.992356873E1,7.194488983E0,2.428405125E0,1.112341404E0,2.338840008E0,-2.981969342E-2
2.433433125E0,-4.972060547E0,-1.729907639E1,8.369545441E0,2.438460125E0,7.062678933E-1,1.969040632E0,-4.431819618E-1
2.443488125E0,-2.148332520E0,-1.325478653E1,7.037764893E0,2.448516125E0,3.993231356E-1,1.640840411E0,-4.321929812E-1
2.453544125E0,-1.291813660E0,-1.116049164E1,3.801045685E0,2.458572125E0,3.379295468E-1,1.466539264E0,-3.583571017E-1
2.463600125E0,-1.098715210E0,-8.972192230E0,2.052382050E0,2.468629125E0,5.049247146E-1,1.588100076E0,-4.061818719E-1
2.473657125E0,-1.064137115E0,-6.701414337E0,2.772235107E0,2.478685125E0,8.014091253E-1,1.655237556E0,-3.131936193E-1
2.483713125E0,-1.122515717E0,-6.145769806E0,1.812580719E0,2.488741125E0,1.179103494E0,1.563560247E0,-1.423163712E-1
2.493769125E0,-9.654922485E-1,-6.796017609E0,-7.574249268E-2,2.498797125E0,1.564620256E0,1.626358986E0,4.913402349E-2
2.503825125E0,-1.001716919E0,-6.948101349E0,6.210585022E-1,2.508853125E0,1.881855488E0,2.059017658E0,1.863599122E-1
2.513881125E0,-1.420396271E0,-7.225025482E0,2.632276154E0,2.518909125E0,2.093241453E0,2.642519236E0,3.325378895E-1
2.523937125E0,-1.514999542E0,-8.024063873E0,3.728596344E0,2.528965125E0,2.218683720E0,3.169058561E0,5.069357157E-1
2.533993125E0,-1.368753662E0,-9.054221649E0,3.874393158E0,2.539020125E0,2.058678865E0,3.491166353E0,5.856632590E-1
2.544048125E0,-1.449136505E0,-1.112262039E1,3.525618439E0,2.549076125E0,1.235108614E0,3.176055908E0,3.222207129E-1
2.554104125E0,-1.350491638E0,-1.234273315E1,3.257975006E0,2.559132125E0,3.457873166E-1,2.434405804E0,3.966837004E-2
2.564160125E0,-4.278103638E-1,-1.090646988E1,3.702550507E0,2.569188125E0,3.476716951E-2,1.864406347E0,-2.112981379E-1
2.574216125E0,7.888595581E-2,-7.774233398E0,4.309987335E0,2.579244125E0,2.157001942E-1,1.396430612E0,-5.020253062E-1
2.584272125E0,3.697311401E-2,-6.662195892E0,3.425925751E0,2.589300125E0,7.437375188E-1,5.324968696E-1,-5.752384067E-1
2.594328125E0,-3.182382202E-1,-8.205486603E0,-3.356021118E-1,2.599356125E0,1.702621698E0,-1.113899112E0,-3.665741682E-1
2.604384125E0,-7.090754700E-1,-9.265881500E0,-5.579796753E0,2.609412125E0,2.470394850E0,-2.390996456E0,-7.194526494E-2
2.614440125E0,-1.118773499E0,-8.963360596E0,-4.215533752E0,2.619468125E0,2.769161940E0,-2.661857367E0,3.096007556E-2
2.624496125E0,-1.658551025E0,-7.592960358E0,-6.553372192E-1,2.629524125E0,2.529161930E0,-1.947563648E0,-9.899326414E-2
2.634552125E0,-2.265239410E0,-6.507268066E0,1.900298309E0,2.639579125E0,1.885872245E0,-6.098418832E-1,-1.617519855E-1
2.644607125E0,-2.573448486E0,-7.189249878E0,3.251089325E0,2.649635125E0,1.247947693E0,5.600609183E-1,-1.307408512E-2
2.654663125E0,-2.543061676E0,-8.412805481E0,2.223925323E0,2.659691125E0,9.626053572E-1,1.109291315E0,1.133890450E-1
2.664719125E0,-2.243684235E0,-9.019493866E0,4.237687683E-1,2.669747125E0,8.969700336E-1,1.229715347E0,1.754473746E-1
2.674775125E0,-2.014061737E0,-9.216484222E0,-2.761756897E-1,2.679803125E0,1.003161669E0,1.216526270E0,2.009207755E-1
2.684831125E0,-1.828148346E0,-9.264683990E0,-2.537223816E-1,2.689859125E0,1.158558965E0,1.215368748E0,1.939265579E-1
2.694887125E0,-1.441951447E0,-9.703571320E0,-2.426454163E-1,2.699915125E0,1.291598558E0,1.016619444E0,1.712191105E-1
2.704943125E0,-8.425978088E-1,-9.838740234E0,-9.529183960E-1,2.709971125E0,1.340208530E0,6.380651593E-1,1.748611629E-1
2.714999125E0,-4.818479919E-1,-9.953252106E0,-1.263223114E0,2.720027125E0,1.290108919E0,2.727167904E-1,1.979726106E-1
2.725055125E0,-2.014810181E-1,-9.932595062E0,-1.296154633E0,2.730083125E0,1.200595975E0,-4.852059856E-2,2.022631168E-1
2.735111125E0,1.359173584E-1,-9.474248199E0,-1.772763519E0,2.740139125E0,1.171720982E0,-2.538375258E-1,2.062365562E-1
2.745166125E0,4.897814941E-1,-9.165590057E0,-2.092648315E0,2.750194125E0,1.219283223E0,-2.440039665E-1,2.947991788E-1
2.755222125E0,6.979985046E-1,-9.252409515E0,-1.954485626E0,2.760250125E0,1.258674860E0,-4.259095341E-2,4.215246439E-1
2.765278125E0,8.243357849E-1,-9.039552155E0,-1.470991058E0,2.770306125E0,1.226576447E0,2.730768025E-1,4.504047930E-1
2.775334125E0,5.465135193E-1,-8.578361206E0,-9.139993286E-1,2.780362125E0,1.149611354E0,5.745112300E-1,3.732884228E-1
2.785390125E0,2.031275940E-1,-8.543633423E0,-7.310797119E-1,2.790418125E0,1.062337399E0,7.552835941E-1,3.149683177E-1
2.795446125E0,-2.365081787E-2,-8.971892853E0,-7.617658997E-1,2.800474125E0,9.561806917E-1,7.793719172E-1,3.003318608E-1
2.805502125E0,-1.830693054E-1,-9.511221313E0,-7.692503357E-1,2.810530125E0,8.274078965E-1,6.565538645E-1,3.122211099E-1
2.815558125E0,-3.308120728E-2,-9.894723816E0,-6.818321228E-1,2.820586125E0,6.815811992E-1,4.704708159E-1,2.988344729E-1
2.825614125E0,2.998265076E-1,-1.001267853E1,-3.914360046E-1,2.830642125E0,5.476690531E-1,3.327433765E-1,2.447720766E-1
2.835670125E0,5.640270996E-1,-1.005788452E1,-1.115180969E-1,2.840698125E0,4.578888416E-1,2.655049562E-1,1.477435231E-1
2.845725125E0,6.870712280E-1,-1.041938278E1,1.212478638E-2,2.850753125E0,4.238685966E-1,2.771732211E-1,3.075604327E-2
2.855781125E0,6.902146912E-1,-1.096185471E1,8.831634521E-2,2.860809125E0,3.949088454E-1,3.255508542E-1,-8.798764646E-2
2.865837125E0,6.737489319E-1,-1.147887955E1,5.403762817E-2,2.870865125E0,3.098485470E-1,3.379841149E-1,-1.798478663E-1
2.875893125E0,7.045848083E-1,-1.190519302E1,4.790039063E-2,2.880921125E0,1.561460942E-1,2.594477832E-1,-2.491004318E-1
2.885949125E0,8.717871094E-1,-1.216999237E1,1.234931946E-1,2.890977125E0,4.011498764E-2,1.959800720E-1,-2.623640001E-1
2.896005125E0,1.132844238E0,-1.249960693E1,1.850152588E-1,2.901033125E0,3.522595391E-2,2.114461064E-1,-2.368919253E-1
2.906061125E0,1.435514832E0,-1.270542892E1,-3.191363525E-1,2.911089125E0,1.452510357E-1,2.858934402E-1,-1.931892484E-1
2.916117125E0,1.623523865E0,-1.285796173E1,-1.096020813E0,2.921145125E0,2.975793183E-1,3.899026513E-1,-1.328771710E-1
2.926173125E0,1.577719116E0,-1.284493881E1,-1.729054413E0,2.931201125E0,3.560790718E-1,4.846516252E-1,-7.682248950E-2
2.936229125E0,1.259780273E0,-1.278311737E1,-2.096091156E0,2.941257125E0,2.651995122E-1,5.893213153E-1,-5.188890547E-2
2.946284125E0,9.482780457E-1,-1.264734970E1,-2.196083221E0,2.951312125E0,2.853235789E-2,6.622080207E-1,-1.000340655E-1
2.956340125E0,1.076411591E0,-1.257100845E1,-2.215991821E0,2.961368125E0,-2.781439424E-1,7.451657653E-1,-2.121720612E-1
2.966396125E0,1.513802032E0,-1.286634430E1,-2.108066254E0,2.971424125E0,-5.371328592E-1,8.446761966E-1,-3.553620577E-1
2.976452125E0,2.010618896E0,-1.331047073E1,-2.125729523E0,2.981480125E0,-8.010915518E-1,7.969941497E-1,-4.687991440E-1
2.986508125E0,2.421963501E0,-1.357107880E1,-2.184856567E0,2.991536125E0,-1.228623867E0,5.103114247E-1,-5.508159995E-1
2.996564125E0,2.676733704E0,-1.333217560E1,-1.918260956E0,3.001592125E0,-1.698381782E0,3.644907102E-2,-6.396518946E-1
3.006620125E0,2.628384247E0,-1.265378632E1,-1.422940979E0,3.011648125E0,-2.019882917E0,-4.222171009E-1,-6.444320679E-1
3.016676125E0,1.985620880E0,-1.201281921E1,-8.265811157E-1,3.021704125E0,-2.156653166E0,-7.475744486E-1,-4.870808423E-1
3.026732125E0,7.005432129E-1,-1.127230911E1,-1.344204712E-1,3.031760125E0,-2.198829412E0,-7.795413733E-1,-4.024698436E-1
3.036788125E0,-1.354982300E0,-9.735754395E0,7.240443420E-1,3.041816125E0,-2.184645653E0,-7.986181378E-1,-3.426496685E-1
3.046843125E0,-3.275039520E0,-8.694220276E0,2.992277527E-1,3.051871125E0,-2.180537701E0,-1.004020452E0,-9.222711623E-2
3.056899125E0,-4.596940613E0,-9.063652039E0,-2.454895020E-1,3.061927125E0,-2.438083887E0,-9.348389506E-1,2.572163641E-1
3.066955125E0,-5.574557648E0,-1.007150620E1,1.229692841E0,3.071983125E0,-2.784327269E0,-6.611816287E-1,4.424749315E-1
3.077011125E0,-5.766458588E0,-1.102367615E1,2.779569855E0,3.082039125E0,-3.000398397E0,-1.429355592E-1,4.678572416E-1
3.087067125E0,-5.742358704E0,-1.216086136E1,4.058659973E0,3.092095125E0,-3.039953947E0,5.986503363E-1,4.574831724E-1
3.097123125E0,-6.188281403E0,-1.334130661E1,5.240901489E0,3.102151125E0,-2.929276943E0,1.529373407E0,5.091106892E-1
3.107179125E0,-6.967261505E0,-1.465781891E1,6.018534393E0,3.112207125E0,-2.684024811E0,2.541642666E0,6.528422236E-1
3.117235125E0,-7.864346008E0,-1.527079422E1,6.360124054E0,3.122263125E0,-2.341436863E0,3.455312490E0,7.303841710E-1
3.127291125E0,-9.064999237E0,-1.437685318E1,5.745951233E0,3.132319125E0,-2.052760601E0,3.742340088E0,-7.725824835E-4
3.137347125E0,-1.099837875E1,-1.093625793E1,3.055146790E-1,3.142375125E0,-1.748471737E0,1.727281332E0,-5.922747254E-1
3.147402125E0,-9.912237396E0,-1.120479950E1,-1.265094223E1,3.152430125E0,-1.605705619E0,-2.811439931E-1,-5.052198768E-1
3.157458125E0,-7.219786377E0,-1.281080978E1,-1.186118454E1,3.162486125E0,-1.589556813E0,-7.843171358E-1,-2.335364521E-1
3.167514125E0,-4.746329956E0,-1.196866104E1,-4.965025177E0,3.172542125E0,-1.564362168E0,4.290910065E-2,-8.652289957E-2
3.177570125E0,-2.731370087E0,-1.021640488E1,-5.204676819E-1,3.182598125E0,-1.463899016E0,1.216177464E0,-1.943319142E-1
3.187626125E0,-7.406597900E-1,-8.058791656E0,8.592132568E-1,3.192654125E0,-1.253778458E0,2.020759821E0,-4.044747353E-1
3.197682125E0,1.303788757E-1,-6.430178375E0,8.171507263E-1,3.202710125E0,-1.049575806E0,2.057807922E0,-6.873876452E-1
3.207738125E0,6.002517700E-1,-6.241720276E0,-5.948629761E-1,3.212766125E0,-7.254624367E-1,1.283124208E0,-8.753501773E-1
3.217794125E0,4.047583008E-1,-6.315666504E0,-1.875150604E0,3.222822125E0,-3.399570584E-1,-4.768202305E-1,-1.228585720E0
3.227850125E0,1.134341125E0,-5.885311432E0,-3.410807190E0,3.232878125E0,-5.011450648E-1,-1.698802829E0,-1.461843252E0
3.237906125E0,1.619631958E0,-6.335575104E0,-1.655108185E0,3.242934125E0,-9.918063879E-1,-2.259261847E0,-1.379292727E0
3.247961125E0,1.846110992E0,-7.157366180E0,1.326691132E0,3.252989125E0,-1.423192859E0,-2.444202900E0,-1.034757733E0
3.258017125E0,2.101030884E0,-6.786437531E0,2.913541260E0,3.263045125E0,-1.670634627E0,-2.564785242E0,-6.527681947E-1
3.268073125E0,2.167043610E0,-5.926775208E0,3.403921509E0,3.273101125E0,-1.810360670E0,-2.500530481E0,-3.566448689E-1
3.278129125E0,2.183808746E0,-5.006788330E0,3.364852753E0,3.283157125E0,-1.906351686E0,-2.420816183E0,-1.779238582E-1
3.288185125E0,1.589993591E0,-4.762646027E0,2.385439453E0,3.293213125E0,-1.891505241E0,-2.348694563E0,-1.347437352E-1
3.298241125E0,5.786965942E-1,-5.133275299E0,1.388811951E0,3.303269125E0,-1.741357565E0,-2.337850094E0,-2.141096592E-1
3.308297125E0,-3.215313721E-1,-5.239554291E0,2.908451843E-1,3.313325125E0,-1.413539171E0,-2.375725031E0,-3.268184662E-1
3.318353125E0,-1.214873657E0,-5.126838684E0,-8.623567200E-1,3.323381125E0,-8.887486458E-1,-2.424796343E0,-4.259194732E-1
3.328409125E0,-1.895358582E0,-5.025200043E0,-1.798210602E0,3.333437125E0,-2.672208250E-1,-2.448930740E0,-4.800936580E-1
3.338465125E0,-2.097438354E0,-4.897515564E0,-1.953886871E0,3.343493125E0,2.469442338E-1,-2.355471134E0,-4.654484093E-1
3.348520125E0,-2.262694702E0,-4.302203522E0,-1.199156342E0,3.353548125E0,6.348177791E-1,-2.088878393E0,-4.542686641E-1
3.358576125E0,-2.559976501E0,-3.363056488E0,-3.899391174E-1,3.363604125E0,9.776236415E-1,-1.830340981E0,-4.947252870E-1
3.368632125E0,-2.711012421E0,-2.498304749E0,-6.271957397E-1,3.373660125E0,1.293726444E0,-1.719987512E0,-4.895526767E-1
3.378688125E0,-2.548899536E0,-2.433489532E0,-1.672172699E0,3.383716125E0,1.510934949E0,-1.752800822E0,-3.180765212E-1
3.388744125E0,-2.314037933E0,-3.572021942E0,-2.531685333E0,3.393772125E0,1.667405725E0,-1.771710038E0,-1.004266925E-2
3.398800125E0,-2.164498901E0,-4.788392487E0,-2.902763672E0,3.403828125E0,1.913280129E0,-1.729780674E0,2.754500508E-1
3.408856125E0,-2.147883453E0,-5.739514618E0,-3.183280334E0,3.413884125E0,2.305133104E0,-1.491043448E0,4.687641263E-1
3.418912125E0,-2.371518402E0,-6.633006592E0,-3.065924377E0,3.423940125E0,2.594167233E0,-9.531061649E-1,5.751129389E-1
3.428968125E0,-2.789598999E0,-7.807763672E0,-3.138972473E0,3.433996125E0,2.632462502E0,-2.292498946E-1,6.071302295E-1
3.439024125E0,-3.044219513E0,-9.918973389E0,-3.286116486E0,3.444052125E0,2.457015991E0,3.349871039E-1,5.738034248E-1
3.449079125E0,-3.604654083E0,-1.270752457E1,-4.451143799E0,3.454107125E0,1.578329086E0,4.801119566E-1,5.696993470E-1
3.459135125E0,-4.581522675E0,-1.641067383E1,-7.886050873E0,3.464163125E0,-6.864001602E-2,3.039032593E-2,6.578316092E-1
3.469191125E0,-5.758525085E0,-2.091765152E1,-1.137334900E1,3.474219500E0,-1.626074076E0,-9.016576409E-1,5.992318988E-1
3.479247500E0,-6.121370544E0,-2.156715088E1,-1.283431091E1,3.484275500E0,-2.716298342E0,-1.414842963E0,2.434668839E-1
3.489303500E0,-5.768853607E0,-1.714474731E1,-1.268327499E1,3.494331500E0,-2.832021713E0,-1.676655650E0,-1.209009811E-1
3.499359500E0,-4.718936920E0,-1.270318359E1,-1.321362213E1,3.504387500E0,-2.125076294E0,-1.912570953E0,-2.721562684E-1
3.509415500E0,-3.029849396E0,-1.056473053E1,-1.196925980E1,3.514443500E0,-1.179655910E0,-1.903435230E0,-4.517284334E-1
3.519471500E0,-2.230511627E0,-8.688083038E0,-8.997040558E0,3.524499500E0,-6.171523929E-1,-1.951941848E0,-6.377984285E-1
3.529527500E0,-1.770518188E0,-7.469467163E0,-6.772666168E0,3.534555500E0,-5.358037949E-1,-1.944059849E0,-7.373159528E-1
3.539583500E0,-1.166524200E0,-6.774163055E0,-4.833897858E0,3.544611500E0,-6.840385199E-1,-1.642708063E0,-7.277221680E-1
3.549638500E0,-6.054908752E-1,-6.002368011E0,-3.281925201E0,3.554666500E0,-7.885677814E-1,-1.001192570E0,-5.472782254E-1
3.559694500E0,-4.189787292E-1,-5.169350281E0,-2.940485229E0,3.564722500E0,-6.627560854E-1,-5.149917603E-1,-3.626233935E-1
3.569750500E0,-8.029302979E-1,-3.822301483E0,-4.756808167E0,3.574778500E0,-3.002380133E-1,-3.708228469E-1,-1.813019812E-1
3.579806500E0,-1.226399689E0,-2.757415924E0,-5.965544586E0,3.584834500E0,9.931657463E-2,-3.419626951E-1,5.891620368E-2
3.589862500E0,-2.378404083E0,-3.738026733E0,-5.402415619E0,3.594890500E0,4.879484773E-1,-3.475951850E-1,2.997668684E-1
3.599918500E0,-4.131708069E0,-7.015461273E0,-4.884642334E0,3.604946500E0,8.921793103E-1,-2.693331540E-1,5.329756141E-1
3.609974500E0,-5.945785675E0,-1.087368805E1,-3.859274597E0,3.615002500E0,1.363071322E0,7.801213115E-2,7.010444999E-1
3.620030500E0,-8.325087891E0,-1.490420654E1,-1.447040863E0,3.625058500E0,1.759434342E0,4.684270024E-1,8.265009522E-1
3.630086500E0,-1.076905563E1,-1.959305603E1,6.192622375E-1,3.635114500E0,1.626420856E0,8.482769132E-1,7.150246501E-1
3.640142500E0,-1.210667404E1,-2.228236359E1,2.288141785E0,3.645170500E0,1.132110357E0,1.484281540E0,1.801972836E-2
3.650197500E0,-7.898175659E0,-1.805141190E1,5.347030792E0,3.655225500E0,6.800213456E-1,1.769724369E0,-6.075090766E-1
3.660253500E0,-1.160087585E0,-1.375295059E1,6.054759064E0,3.665281500E0,2.871771455E-1,1.612126708E0,-5.876834393E-1
3.670309500E0,1.483415222E-1,-1.163171173E1,4.078418884E0,3.675337500E0,6.053269655E-2,1.315654874E0,-3.474211991E-1
3.680365500E0,1.818717957E-1,-8.551866302E0,2.733914795E0,3.685393500E0,5.300127715E-2,1.218482733E0,-1.240709201E-1
3.690421500E0,4.775070190E-2,-6.035598907E0,4.431833954E0,3.695449500E0,1.667760909E-1,1.409091353E0,4.235089570E-2
3.700477500E0,-4.264631653E-1,-4.576582947E0,5.181624756E0,3.705505500E0,3.993696272E-1,1.530482531E0,2.496825010E-1
3.710533500E0,-9.002279663E-1,-5.346881104E0,3.458258514E0,3.715561500E0,8.250456452E-1,1.590334654E0,3.922007084E-1
3.720589500E0,-1.580563202E0,-6.760990448E0,2.130669250E0,3.725617500E0,1.356524467E0,1.767490983E0,4.320602417E-1
3.730645500E0,-2.224224701E0,-7.716752930E0,2.283351746E0,3.735673500E0,1.865735531E0,2.203571081E0,4.551439285E-1
3.740701500E0,-2.785557404E0,-8.298892365E0,3.342249756E0,3.745729500E0,2.220067739E0,2.724407196E0,5.085352659E-1
3.750756500E0,-3.024460602E0,-8.894503784E0,3.575165405E0,3.755784500E0,2.391009569E0,3.155570030E0,6.038798094E-1
3.760812500E0,-3.003354492E0,-9.713750153E0,3.093616791E0,3.765840500E0,2.381174803E0,3.428314924E0,6.558692455E-1
3.770868500E0,-2.759361877E0,-1.094628708E1,2.714604950E0,3.775896500E0,1.886012673E0,3.296217442E0,4.679173827E-1
3.780924500E0,-2.455344086E0,-1.283850220E1,2.443518677E0,3.785952500E0,1.178576469E0,3.005801439E0,1.464030147E-1
3.790980500E0,-1.650018768E0,-1.274494675E1,2.667003937E0,3.796008500E0,6.694097519E-1,2.853638649E0,-1.603118479E-1
3.801036500E0,-8.147557068E-1,-9.929002533E0,3.072959747E0,3.806064500E0,6.202473044E-1,2.731447220E0,-4.338507056E-1
3.811092500E0,-6.966513062E-1,-7.928113403E0,2.045945435E0,3.816120500E0,1.246462941E0,1.522138834E0,-5.000722408E-1
3.821148500E0,-8.428971863E-1,-8.049061890E0,-4.622836761E0,3.826176500E0,2.213397264E0,-4.882085323E-1,-3.076282144E-1
3.831204500E0,-9.560618591E-1,-8.846753082E0,-7.513325958E0,3.836232500E0,2.593610525E0,-1.711758137E0,-1.241339147E-1
3.841260500E0,-1.203347626E0,-8.319549408E0,-3.488495636E0,3.846288500E0,2.395988464E0,-1.965191722E0,-7.815976441E-2
3.851315500E0,-1.441951447E0,-6.781048737E0,-2.294728088E-1,3.856343500E0,1.831817150E0,-1.378581643E0,-8.995635808E-2
3.861371500E0,-1.792223053E0,-6.118376770E0,2.041305084E0,3.866399500E0,1.148224115E0,-3.933835626E-1,-3.425288945E-2
3.871427500E0,-1.320553894E0,-6.318211212E0,2.690056000E0,3.876455500E0,7.074255943E-1,4.058697224E-1,1.215174943E-1
3.881483500E0,-5.486091614E-1,-6.956483917E0,1.940714264E0,3.886511500E0,6.154722571E-1,8.579578400E-1,1.984628737E-1
3.891539500E0,-6.078858948E-1,-7.771239624E0,1.069825287E0,3.896567500E0,7.563710809E-1,8.741873503E-1,1.813663095E-1
3.901595500E0,-5.358856201E-1,-8.453371124E0,-9.310638428E-2,3.906623500E0,9.365669489E-1,6.954649687E-1,1.318773180E-1
3.911651500E0,-3.047662354E-1,-9.352700958E0,-4.598437500E-1,3.916679500E0,1.075980663E0,6.880682707E-1,2.638593130E-2
3.921707500E0,8.981323242E-4,-9.802515564E0,-8.262817383E-2,3.926735500E0,1.215668559E0,7.994507551E-1,-9.869901836E-2
3.931763500E0,4.195774841E-1,-1.011581406E1,-3.082090759E-1,3.936791500E0,1.353179932E0,1.010578156E0,-2.046695352E-1
3.941819500E0,6.433621216E-1,-1.080827408E1,-6.611750793E-1,3.946846500E0,1.382298708E0,1.134602666E0,-2.914156020E-1
3.951874500E0,9.280700684E-1,-1.082473984E1,-1.240171051E0,3.956902500E0,1.298597813E0,1.036324978E0,-3.480540216E-1
3.961930500E0,1.157842255E0,-1.039258850E1,-2.161954193E0,3.966958500E0,1.146978736E0,7.785422206E-1,-3.291607499E-1
3.971986500E0,1.135239258E0,-1.009515701E1,-3.172353058E0,3.977014500E0,1.003724337E0,4.024438560E-1,-2.547200024E-1
3.982042500E0,1.090182953E0,-9.743238831E0,-3.958667908E0,3.987070500E0,9.486488104E-1,8.494286239E-2,-1.134270504E-1
3.992098500E0,1.017134857E0,-9.428293762E0,-3.712729340E0,3.997126500E0,9.528161883E-1,-7.294502109E-2,2.723616920E-2
4.002154500E0,8.675958252E-1,-9.318721619E0,-2.736010437E0,4.007182500E0,9.166789651E-1,-7.831022143E-2,1.047860831E-1
4.012210500E0,5.544470215E-1,-9.230704651E0,-1.474583588E0,4.017238500E0,8.159278631E-1,-9.735452011E-3,1.286366582E-1
4.022266500E0,6.661148071E-2,-9.036109314E0,-5.261558533E-1,4.027294500E0,7.150630355E-1,5.257079378E-3,1.198271886E-1
4.032322500E0,-4.486170959E-1,-8.760682068E0,-2.341131592E-1,4.037350500E0,6.965861917E-1,-3.919291310E-3,1.441061795E-1
4.042378500E0,-7.843688965E-1,-8.767418060E0,-1.222956848E-1,4.047405500E0,7.344744802E-1,-7.930725813E-2,1.991151124E-1
4.052433500E0,-9.545649719E-1,-8.975485382E0,-2.432441711E-1,4.057461500E0,7.673095465E-1,-1.561165899E-1,2.442671359E-1
4.062489500E0,-9.744735718E-1,-8.997339935E0,-1.164578247E-1,4.067517500E0,7.175635695E-1,-1.734393984E-1,2.744673789E-1
4.072545500E0,-7.340734863E-1,-8.992549896E0,2.689906311E-1,4.077573500E0,5.915090442E-1,-1.769661605E-1,3.026993573E-1
4.082601500E0,-3.592529297E-1,-9.046886902E0,7.292834473E-1,4.087629500E0,4.475795329E-1,-1.541402191E-1,3.198828697E-1
4.092657500E0,-1.731898499E-1,-9.416767731E0,1.134191437E0,4.097685500E0,4.160408676E-1,-1.006477252E-1,2.737569511E-1
4.102713500E0,-4.231700134E-1,-1.003258713E1,1.046922913E0,4.107741500E0,4.868748188E-1,-6.106036529E-2,1.598152220E-1
4.112769500E0,-8.042774963E-1,-1.082054855E1,6.625222778E-1,4.117797500E0,5.467486382E-1,-1.069609746E-1,7.015565038E-2
4.122825500E0,-8.342152405E-1,-1.153426437E1,1.877096558E-1,4.127853500E0,5.512815714E-1,-1.747376174E-1,3.938522562E-2
4.132881500E0,-7.093748474E-1,-1.210188400E1,1.227447510E-1,4.137909500E0,5.188139081E-1,-1.826827675E-1,6.452968717E-2
4.142936500E0,-5.146298218E-1,-1.250035538E1,1.865121460E-1,4.147964500E0,4.692634344E-1,-1.010675207E-1,1.226720884E-1
4.152992500E0,-1.577719116E-1,-1.266007324E1,2.469863892E-2,4.158020500E0,4.437972307E-1,1.023210213E-1,1.856632978E-1
4.163048500E0,2.041754150E-1,-1.262414795E1,-4.290078735E-1,4.168076500E0,4.450007081E-1,3.859196901E-1,2.210138440E-1
4.173104500E0,3.553610229E-1,-1.239497452E1,-1.184337158E0,4.178132500E0,4.427773356E-1,6.669301391E-1,2.120746672E-1
4.183160500E0,3.122506714E-1,-1.207164688E1,-2.114502869E0,4.188188500E0,3.917271793E-1,8.662216663E-1,1.569387168E-1
4.193216500E0,2.251318359E-1,-1.218181778E1,-2.907703400E0,4.198244500E0,2.155593187E-1,8.865754008E-1,5.060126260E-2
4.203272500E0,5.553451538E-1,-1.242206818E1,-3.502266998E0,4.208300500E0,-1.186788529E-1,7.603631616E-1,-1.188530102E-1
4.213328500E0,1.198108521E0,-1.303025345E1,-3.379522247E0,4.218356500E0,-5.359640121E-1,7.096757889E-1,-2.777178586E-1
4.223384500E0,1.837279358E0,-1.390802811E1,-2.044448547E0,4.228412500E0,-8.939477205E-1,7.306481600E-1,-3.935589790E-1
4.233440500E0,2.471211090E0,-1.428045364E1,-1.119971008E0,4.238468500E0,-1.097537398E0,6.784299612E-1,-4.262560010E-1
4.243495500E0,2.570005646E0,-1.428748901E1,-1.183439026E0,4.248523500E0,-1.360944867E0,4.157333374E-1,-4.161349237E-1
4.253551500E0,2.200424194E0,-1.345177689E1,-1.932930450E0,4.258579500E0,-1.855712414E0,-1.848383993E-2,-4.579127133E-1
4.263607500E0,1.737436981E0,-1.237431747E1,-2.234104156E0,4.268635500E0,-2.334102392E0,-5.352532268E-1,-4.876154661E-1
4.273663500E0,9.698332214E-1,-1.159818146E1,-1.824555817E0,4.278691500E0,-2.530117273E0,-9.090694189E-1,-4.913478494E-1
4.283719500E0,-5.324427795E-1,-1.017045044E1,-6.620732117E-1,4.288747500E0,-2.496776581E0,-1.064770699E0,-5.330089927E-1
4.293775500E0,-2.417772217E0,-8.997938690E0,4.249662781E-1,4.298803500E0,-2.514122725E0,-1.081633091E0,-5.762123466E-1
4.303831500E0,-3.694167938E0,-8.536747742E0,7.162605286E-1,4.308859500E0,-2.623350859E0,-9.915617704E-1,-4.799883366E-1
4.313887500E0,-4.505181427E0,-9.107211456E0,1.558858337E0,4.318915500E0,-2.742008924E0,-7.018521428E-1,-3.917191625E-1
4.323943500E0,-4.630770264E0,-1.051683014E1,2.753374329E0,4.328971500E0,-2.768059492E0,-1.785087883E-1,-3.129013181E-1
4.333999500E0,-4.490661621E0,-1.160821060E1,3.860921173E0,4.339026500E0,-2.688930273E0,5.190010071E-1,-1.879097223E-1
4.344054500E0,-4.748724976E0,-1.297292267E1,4.711452484E0,4.349082500E0,-2.554453373E0,1.321458817E0,-3.438674286E-2
4.354110500E0,-5.209466858E0,-1.451441711E1,5.396727448E0,4.359138500E0,-2.365500212E0,2.194954395E0,1.684345305E-1
4.364166500E0,-5.914051666E0,-1.574620560E1,5.788462830E0,4.369194500E0,-2.092102766E0,2.869367361E0,4.233182371E-1
4.374222500E0,-6.296805725E0,-1.579096252E1,4.299359436E0,4.379250500E0,-1.829543829E0,2.826822996E0,4.613630772E-1
4.384278500E0,-6.063441010E0,-1.437460785E1,-8.496331787E-1,4.389306500E0,-1.563895345E0,1.794263482E0,2.415346056E-1
4.394334500E0,-5.439089355E0,-1.299133438E1,-7.348069611E0,4.399362500E0,-1.399326444E0,4.379316866E-1,4.985039309E-2
4.404390500E0,-4.786147156E0,-1.239467514E1,-9.232500916E0,4.409418500E0,-1.397029757E0,1.639189571E-2,-6.055307761E-2
4.414446500E0,-3.835623779E0,-1.176523407E1,-5.394332428E0,4.419474500E0,-1.478494763E0,5.374178886E-1,-7.117818296E-2
4.424502500E0,-3.403771820E0,-1.007824219E1,-1.706900482E0,4.429530500E0,-1.563765526E0,1.110605836E0,-3.290656507E-1
4.434557500E0,-2.453398132E0,-8.060587921E0,-5.653742981E-1,4.439585500E0,-1.318025351E0,7.661088705E-1,-5.261497498E-1
4.444613500E0,-1.491947479E0,-7.853418732E0,-1.727856903E0,4.449641500E0,-9.424669743E-1,-2.456185669E-1,-7.709293962E-1
4.454669500E0,-8.292755127E-1,-7.327861633E0,-2.049987030E0,4.459697500E0,-8.829718232E-1,-8.561491370E-1,-9.189314842E-1
4.464725500E0,-6.472540283E-1,-6.805148621E0,-2.767744446E-1,4.469753500E0,-9.479385614E-1,-1.000733495E0,-9.145625234E-1
4.474781500E0,-5.201683044E-1,-5.983656921E0,1.073417816E0,4.479809500E0,-9.870007634E-1,-1.366876483E0,-8.444439173E-1
4.484837500E0,-3.141966248E-1,-5.558990021E0,9.129515076E-1,4.489865500E0,-1.017079353E0,-1.571024060E0,-7.164036632E-1
4.494893500E0,-4.918771362E-1,-5.366640015E0,1.502276001E0,4.499921500E0,-1.101621985E0,-1.969254613E0,-5.819522142E-1
4.504949500E0,-5.096900940E-1,-5.340743866E0,1.650767212E0,4.509977500E0,-1.373805881E0,-2.409055710E0,-3.359225094E-1
4.515005500E0,-9.235794067E-2,-4.995561676E0,2.586920471E0,4.520033500E0,-1.644610405E0,-2.705621243E0,-1.041910052E-1
4.525061500E0,6.406677246E-2,-4.682712250E0,3.656895447E0,4.530089500E0,-1.922360778E0,-2.529820442E0,5.039750412E-2
4.535116500E0,2.380050659E-2,-4.789739685E0,4.378844147E0,4.540144500E0,-2.088458300E0,-2.024771214E0,2.944591828E-2
4.545172500E0,-5.695655823E-1,-5.187312927E0,3.172951813E0,4.550200500E0,-2.042962790E0,-1.739766717E0,-1.382075250E-1
4.555228500E0,-1.319506073E0,-5.497917023E0,8.005352783E-1,4.560256500E0,-1.715292335E0,-1.735049963E0,-3.362279832E-1
4.565284500E0,-2.086361389E0,-5.485343170E0,-1.508862305E0,4.570312500E0,-1.099355578E0,-2.014899969E0,-4.847977459E-1
4.575340500E0,-2.626288605E0,-5.241949310E0,-3.410807190E0,4.580368500E0,-3.944982290E-1,-2.202601910E0,-5.253908634E-1
4.585396500E0,-2.604134674E0,-4.853656769E0,-3.189118195E0,4.590424500E0,2.001398355E-1,-2.198189735E0,-5.429991484E-1
4.595452500E0,-2.419568481E0,-4.189936981E0,-2.371817780E0,4.600480500E0,6.705579162E-1,-2.089536190E0,-5.160015821E-1
4.605508500E0,-2.304008789E0,-3.645070038E0,-1.785636749E0,4.610536500E0,9.981432557E-1,-1.994308472E0,-4.642356038E-1
4.615564500E0,-1.858684845E0,-3.043022003E0,-1.634750519E0,4.620592500E0,1.242328286E0,-1.930186033E0,-3.740280569E-1
4.625620500E0,-1.488205261E0,-2.770887909E0,-1.735491028E0,4.630647500E0,1.464826703E0,-1.899562359E0,-1.730262339E-1
4.635675500E0,-1.458716583E0,-3.724255371E0,-2.224823456E0,4.640703500E0,1.707180023E0,-1.977033496E0,1.015290990E-1
4.645731500E0,-1.467847595E0,-5.131479034E0,-3.230881348E0,4.650759500E0,2.065959930E0,-2.017498255E0,2.727748752E-1
4.655787500E0,-1.442849579E0,-5.908363495E0,-3.393892365E0,4.660815500E0,2.369178534E0,-1.773211956E0,4.054465592E-1
4.665843500E0,-1.689237213E0,-7.093449097E0,-2.665207672E0,4.670871500E0,2.419914722E0,-1.099507213E0,5.509366989E-1
4.675899500E0,-2.020797729E0,-9.047934723E0,-1.920206909E0,4.680927500E0,2.310540676E0,-3.261699677E-1,5.219911337E-1
4.685955500E0,-2.381098480E0,-1.063717987E1,-2.458637238E0,4.690983500E0,1.818276882E0,1.524320394E-1,3.654209971E-1
4.696011500E0,-3.028202820E0,-1.261816040E1,-4.886887665E0,4.701039500E0,6.253200769E-1,1.067937464E-1,3.477764726E-1
4.706067500E0,-4.066892853E0,-1.665945648E1,-8.691825256E0,4.711095500E0,-8.192024231E-1,-6.206502914E-1,4.552930892E-1
4.716123500E0,-5.006488953E0,-2.052861053E1,-1.190758804E1,4.721151500E0,-1.989343882E0,-1.664624095E0,4.392593205E-1
4.726179500E0,-5.304219818E0,-2.096645004E1,-1.357302475E1,4.731206500E0,-2.651504755E0,-1.909871101E0,1.031923667E-1
4.736234500E0,-5.024750977E0,-1.712723373E1,-1.299028656E1,4.741262500E0,-2.298256874E0,-1.566901684E0,-1.929387301E-1
4.746290500E0,-4.546495514E0,-1.303354660E1,-1.235336105E1,4.751318500E0,-1.299108148E0,-9.607257247E-1,-3.001394868E-1
4.756346500E0,-3.824846191E0,-1.051278854E1,-9.565708008E0,4.761374500E0,-6.700457931E-1,-9.551535845E-1,-4.455346465E-1
4.766402500E0,-3.309617615E0,-8.247848511E0,-8.536148987E0,4.771430500E0,-7.210834026E-1,-1.629321575E0,-4.976180792E-1
4.776458500E0,-2.773282928E0,-7.163952484E0,-6.951843567E0,4.781486500E0,-9.547635317E-1,-1.797064900E0,-4.208122194E-1
4.786514500E0,-1.699416046E0,-6.531517639E0,-4.169130249E0,4.791542500E0,-9.881483912E-1,-1.508837104E0,-3.729301691E-1
4.796570500E0,-4.132905579E-1,-5.870941315E0,-3.680995331E0,4.801598500E0,-7.470236421E-1,-8.601591587E-1,-2.864718735E-1
4.806626500E0,1.399589539E-1,-4.931494904E0,-3.947590942E0,4.811654500E0,-3.936487734E-1,-3.770543039E-1,-1.386856139E-1
4.816682500E0,-5.158273315E-1,-3.694617004E0,-4.554878082E0,4.821709500E0,-7.568413019E-2,-2.685072422E-1,8.092784137E-2
4.826737500E0,-2.179168396E0,-3.564687195E0,-4.199367371E0,4.831765500E0,2.661581635E-1,-1.474010348E-1,2.577859759E-1
4.836793500E0,-4.200115814E0,-5.650449829E0,-2.994073792E0,4.841821500E0,7.035440207E-1,3.764247894E-2,4.913796186E-1
4.846849500E0,-6.202651520E0,-9.531878357E0,-2.483635254E0,4.851877500E0,1.224085808E0,4.347597361E-1,6.740980148E-1
4.856905500E0,-8.638386383E0,-1.327828766E1,-1.350641327E0,4.861933500E0,1.698503375E0,1.026215553E0,8.516281247E-1
4.866961500E0,-1.094943054E1,-1.740595413E1,3.849993896E-1,4.871989500E0,1.781298637E0,1.314972162E0,9.275593758E-1
4.877017500E0,-1.227178070E1,-2.032353699E1,4.134402466E-1,4.882045500E0,1.421370268E0,1.269525409E0,6.470406651E-1
4.887073500E0,-1.108879074E1,-1.938199493E1,9.282197571E-1,4.892101500E0,1.031792402E0,1.285114527E0,4.874765873E-2
4.897129500E0,-4.929698639E0,-1.426593384E1,3.322490845E0,4.902157500E0,8.117842674E-1,1.574259043E0,-4.472584724E-1
4.907185500E0,4.279600525E-1,-1.049452652E1,5.662424927E0,4.912213500E0,5.948053598E-1,1.714763999E0,-5.414823890E-1
4.917241500E0,2.015259247E0,-9.892777863E0,4.817282410E0,4.922268500E0,3.494871855E-1,1.733583927E0,-4.333746135E-1
4.927296500E0,1.736987915E0,-7.881859589E0,3.847449188E0,4.932324500E0,4.593596160E-1,1.755078912E0,-3.395109773E-1
4.937352500E0,1.315614166E0,-5.375321960E0,3.888314209E0,4.942380500E0,7.187393308E-1,1.690757155E0,-1.499382704E-1
4.947408500E0,5.632786560E-1,-4.671934662E0,3.316952362E0,4.952436500E0,1.005078077E0,1.572406530E0,7.245673239E-2
4.957464500E0,-2.522254944E-1,-4.576133881E0,2.985541534E0,4.962492500E0,1.273618698E0,1.602902770E0,2.094545662E-1
4.967520500E0,-9.834548950E-1,-4.493206329E0,3.163970490E0,4.972548500E0,1.552448511E0,1.875118613E0,3.677754998E-1
4.977576500E0,-1.436712341E0,-5.794450378E0,3.391946411E0,4.982604500E0,1.820398927E0,2.207294464E0,6.058380604E-1
4.987632500E0,-1.847308502E0,-8.057743835E0,3.156036987E0,4.992660500E0,1.935025930E0,2.579952240E0,9.246708751E-1
4.997688500E0,-2.283351746E0,-1.070154602E1,3.114872589E0,5.002716500E0,1.610188961E0,2.698987961E0,9.978705645E-1
5.007744500E0,-2.577789459E0,-1.363963623E1,3.205434265E0,5.012771500E0,8.690811396E-1,2.491476536E0,6.699414253E-1
5.017799500E0,-2.137554932E0,-1.491483444E1,3.533102875E0,5.022827500E0,3.018447161E-1,2.049595833E0,1.652748138E-1
5.027855500E0,-8.666976929E-1,-1.211520630E1,3.325933685E0,5.032883500E0,2.525197566E-1,1.527927279E0,-4.085498452E-1
5.037911500E0,-2.856060791E-1,-8.407716064E0,1.758543091E0,5.042939500E0,1.177817225E0,2.313320339E-2,-7.588846087E-1
5.047967500E0,5.239105225E-2,-7.927215271E0,-6.114784241E0,5.052995500E0,2.194302082E0,-1.660849929E0,-8.186296821E-1
5.058023500E0,2.802172852E-1,-8.556356964E0,-6.816375275E0,5.063051500E0,2.542709351E0,-2.339509249E0,-7.795478702E-1
5.068079500E0,-2.378553772E-1,-8.420738983E0,-2.218536530E0,5.073107500E0,2.328156471E0,-2.110675812E0,-5.265235901E-1
5.078135500E0,-9.392967224E-1,-7.827372894E0,-6.032455444E-2,5.083163500E0,1.749029398E0,-1.231871605E0,-4.519428611E-1
5.088191500E0,-1.883533173E0,-6.276148682E0,1.510209503E0,5.093219500E0,1.100803494E0,-1.374159604E-1,-4.927230477E-1
5.098247500E0,-2.386187897E0,-6.623127136E0,1.500928802E0,5.103275500E0,7.443586588E-1,6.432137489E-1,-3.623779416E-1
5.108303500E0,-2.463277588E0,-8.047565002E0,-6.140231323E-1,5.113330500E0,7.010052800E-1,8.545166850E-1,-2.297232300E-1
5.118358500E0,-2.052831116E0,-8.524173889E0,-2.157313843E0,5.123386500E0,7.876635194E-1,7.130015492E-1,-1.466450244E-1
5.128414500E0,-1.589394836E0,-8.629854126E0,-2.074086914E0,5.133442500E0,8.471462727E-1,4.895812869E-1,-7.862868160E-2
5.138470500E0,-1.097966766E0,-8.949439545E0,-1.118174744E0,5.143498500E0,8.459484577E-1,2.904866338E-1,-3.030683380E-3
5.148526500E0,-6.231541443E-1,-9.548493805E0,-4.469705200E-1,5.153554500E0,8.153793812E-1,1.699996553E-2,4.388675839E-2
5.158582500E0,-1.200503540E-1,-9.796677704E0,-6.032455444E-1,5.163610500E0,7.915462255E-1,-3.890810609E-1,7.455638051E-2
5.168638500E0,4.884342957E-1,-9.884395294E0,-9.686357117E-1,5.173666500E0,8.540631533E-1,-7.642400265E-1,2.794386819E-2
5.178694500E0,9.122030640E-1,-1.026056305E1,-9.577084351E-1,5.183722500E0,1.015142322E0,-7.652230859E-1,-6.220895424E-2
5.188750500E0,7.553292847E-1,-1.009440857E1,-4.143383789E-1,5.193778500E0,1.051145315E0,-3.936569989E-1,-5.735534057E-2
5.198806500E0,5.769003296E-1,-9.176966400E0,-2.131567383E-1,5.203834500E0,1.018198371E0,3.735277057E-2,2.353552356E-2
5.208861500E0,2.586621094E-1,-8.777147827E0,-4.140390015E-1,5.213889500E0,9.721460342E-1,2.978469133E-1,1.468651742E-1
5.218917500E0,-2.914439392E-1,-8.690328369E0,-6.454577637E-1,5.223945500E0,9.496291876E-1,4.680249691E-1,2.070845962E-1
5.228973500E0,-1.011596375E0,-8.449628906E0,-5.228627014E-1,5.234001500E0,9.712484479E-1,5.704852939E-1,2.452748567E-1
5.239029500E0,-1.377734985E0,-8.526419220E0,-5.243595886E-1,5.244057500E0,1.040001154E0,5.757568479E-1,2.813733518E-1
5.249085500E0,-1.441652069E0,-8.655600586E0,-7.605683899E-1,5.254113500E0,1.118635416E0,4.602094591E-1,3.033718467E-1
5.259141500E0,-1.339414673E0,-8.718020782E0,-1.186732178E0,5.264169500E0,1.182649136E0,2.937903106E-1,3.236312866E-1
5.269197500E0,-1.213975525E0,-8.866062927E0,-1.389410706E0,5.274225500E0,1.202849269E0,1.340858638E-1,3.462108970E-1
5.279253500E0,-9.131011963E-1,-9.185798035E0,-1.330433350E0,5.284281500E0,1.140406251E0,1.622097939E-2,3.723775148E-1
5.289309500E0,-4.391867065E-1,-9.469009094E0,-1.068478088E0,5.294337500E0,9.977170825E-1,-3.957677260E-2,3.791898787E-1
5.299365500E0,-1.586700439E-2,-9.623787231E0,-6.926097107E-1,5.304392500E0,8.278505802E-1,-4.169634357E-2,3.429360092E-1
5.309420500E0,2.453398132E-1,-9.800120544E0,-4.504133606E-1,5.314448500E0,6.892394423E-1,-1.485620439E-2,2.751969099E-1
5.319476500E0,2.983296204E-1,-1.024858795E1,-4.471202087E-1,5.324504500E0,6.181049943E-1,-2.723202668E-2,2.030715942E-1
5.329532500E0,9.864486694E-2,-1.088162155E1,-7.170089722E-1,5.334560500E0,5.609388947E-1,-9.569203854E-2,1.376957744E-1
5.339588500E0,-1.709445190E-1,-1.154908356E1,-9.351054382E-1,5.344616500E0,4.535757899E-1,-1.054323465E-1,9.431276470E-2
5.349644500E0,-2.688409424E-1,-1.229049179E1,-7.761360168E-1,5.354672500E0,3.139753044E-1,-7.665156573E-2,7.165937871E-2
5.359700500E0,6.481521606E-2,-1.287083496E1,-6.598278809E-1,5.364728500E0,1.845832467E-1,-5.867236760E-3,5.937540159E-2
5.369756500E0,6.978488159E-1,-1.313264053E1,-6.406677246E-1,5.374784500E0,8.524359763E-2,1.583864093E-1,3.834761679E-2
5.379812500E0,1.375789032E0,-1.315374664E1,-8.577163696E-1,5.384840500E0,3.677663952E-2,4.380922318E-1,-1.633586176E-2
5.389868500E0,1.930685120E0,-1.278221924E1,-1.421444092E0,5.394896500E0,4.126592726E-2,7.783547640E-1,-1.214841232E-1
5.399923500E0,2.221979370E0,-1.238225098E1,-2.058219910E0,5.404951500E0,6.546123326E-2,1.078049541E0,-2.566002309E-1
5.409979500E0,2.182162170E0,-1.248838028E1,-2.539020081E0,5.415007500E0,1.389418077E-2,1.261593819E0,-3.731428087E-1
5.420035500E0,2.062560883E0,-1.291948380E1,-2.807861023E0,5.425063500E0,-2.243607044E-1,1.247436166E0,-4.271281660E-1
5.430091500E0,2.017504578E0,-1.363783997E1,-2.726729736E0,5.435119500E0,-6.423379779E-1,8.127169013E-1,-4.252825975E-1
5.440147500E0,1.649420013E0,-1.447355209E1,-3.032992859E0,5.445175500E0,-1.125947118E0,5.885662884E-2,-4.169012010E-1
5.450203500E0,1.509311371E0,-1.466994370E1,-3.186423798E0,5.455231500E0,-1.579311609E0,-5.996543765E-1,-4.748398662E-1
5.460259500E0,1.736089783E0,-1.402104309E1,-2.225122833E0,5.465287500E0,-1.920580745E0,-9.439625144E-1,-5.106901526E-1
5.470315500E0,1.383273468E0,-1.335417984E1,-8.291258240E-1,5.475342250E0,-2.109060764E0,-1.050325513E0,-5.234763026E-1
5.480370250E0,2.329156494E-1,-1.257055939E1,2.436932373E-1,5.485398250E0,-2.181430817E0,-9.935445189E-1,-5.679411888E-1
5.490426250E0,-1.823657684E0,-1.093925171E1,8.056246948E-1,5.495454250E0,-2.118510246E0,-1.053925872E0,-5.879194736E-1
5.500481250E0,-3.621868286E0,-8.904682617E0,5.882766724E-1,5.505509250E0,-2.162395954E0,-1.062345743E0,-5.275909901E-1
5.510537250E0,-5.043761444E0,-8.437953186E0,6.569837952E-1,5.515565250E0,-2.388372898E0,-7.986061573E-1,-2.566037178E-1
5.520593250E0,-6.013594666E0,-9.339079285E0,1.714534607E0,5.525621250E0,-2.609483719E0,-2.308948934E-1,2.881844901E-2
5.530649250E0,-6.162684631E0,-1.068882248E1,3.440744934E0,5.535677250E0,-2.739628553E0,5.212470293E-1,8.137327433E-2
5.540705250E0,-5.932762756E0,-1.196147598E1,5.021457825E0,5.545733250E0,-2.775048256E0,1.425617576E0,-1.076650340E-2
5.550761250E0,-6.289171600E0,-1.358889175E1,6.240373077E0,5.555789250E0,-2.649639130E0,2.372231960E0,-6.356047839E-2
5.560817250E0,-6.975943451E0,-1.526166321E1,6.580765228E0,5.565845250E0,-2.357588768E0,3.158550978E0,2.639881335E-2
5.570873250E0,-7.660469971E0,-1.606728790E1,5.717809753E0,5.575901250E0,-2.024684429E0,3.508074999E0,1.796024889E-1
5.580929250E0,-8.334817657E0,-1.574396027E1,2.460583191E0,5.585957250E0,-1.763602734E0,2.941976309E0,-1.783871837E-2
5.590985250E0,-9.403295746E0,-1.302381683E1,-4.243226166E0,5.596012250E0,-1.576937318E0,1.650795341E0,-4.588637650E-1
5.601040250E0,-9.212292938E0,-1.110375961E1,-9.126072235E0,5.606068250E0,-1.578064680E0,6.659430265E-1,-6.366559863E-1
5.611096250E0,-6.784491577E0,-1.087787933E1,-7.585176544E0,5.616124250E0,-1.613557935E0,5.758980513E-1,-5.417185426E-1
5.621152250E0,-4.498146057E0,-1.045351181E1,-3.316802673E0,5.626180250E0,-1.448796034E0,1.148165703E0,-4.487523437E-1
5.631208250E0,-2.534080353E0,-9.261690216E0,-7.303312683E-1,5.636236250E0,-1.209921360E0,1.420488358E0,-5.178214312E-1
5.641264250E0,-8.581654358E-1,-8.008047180E0,-1.745669861E0,5.646292250E0,-1.087190509E0,1.001486778E0,-7.065852880E-1
5.651320250E0,-1.794767761E-1,-7.507338409E0,-3.274590454E0,5.656348250E0,-1.027334929E0,2.868786687E-3,-9.120771885E-1
5.661376250E0,-1.853146362E-1,-7.576943665E0,-3.031196594E0,5.666404250E0,-9.060909748E-1,-1.047418594E0,-1.077107191E0
5.671432250E0,2.742297363E-1,-7.457492065E0,-1.509760437E0,5.676460250E0,-9.757006764E-1,-1.155084610E0,-1.155833244E0
5.681488250E0,5.864804077E-1,-6.503825226E0,1.283131714E0,5.686516250E0,-1.005041242E0,-9.221560955E-1,-1.065136671E0
5.691543250E0,4.002676392E-1,-5.902974701E0,2.241289215E0,5.696571250E0,-1.082972288E0,-1.018525004E0,-8.576437235E-1
5.701599250E0,6.213578796E-1,-5.491330719E0,2.183209991E0,5.706627250E0,-1.407481074E0,-1.521324992E0,-5.473793149E-1
5.711655250E0,9.077124023E-1,-5.331463165E0,2.897374878E0,5.716683250E0,-1.701104164E0,-1.984037161E0,-2.257024944E-1
5.721711250E0,9.657916260E-1,-4.921166382E0,3.290906525E0,5.726739250E0,-1.930931687E0,-2.025936604E0,8.762108162E-3
5.731767250E0,1.029708710E0,-4.805457001E0,3.325035553E0,5.736795250E0,-2.095638275E0,-1.934056401E0,6.538570672E-2
5.741823250E0,6.309379578E-1,-5.086871796E0,2.075434113E0,5.746851250E0,-2.144747972E0,-1.804429770E0,1.495178603E-2
5.751879250E0,-1.290316772E-1,-5.504952393E0,8.044271851E-1,5.756907250E0,-1.933855653E0,-1.778529167E0,-1.749504954E-1
5.761935250E0,-8.816665649E-1,-5.371729431E0,-8.101153564E-1,5.766963250E0,-1.457086802E0,-2.019087553E0,-3.857466578E-1
5.771991250E0,-1.573228455E0,-5.060526581E0,-2.841690674E0,5.777019250E0,-8.156458139E-1,-2.298773527E0,-5.375473499E-1
5.782047250E0,-1.847308502E0,-4.807552643E0,-3.360212402E0,5.787075250E0,-1.506071836E-1,-2.335125685E0,-6.102452874E-1
5.792102250E0,-1.866169281E0,-4.438120880E0,-2.474354553E0,5.797130250E0,4.166181386E-1,-2.262101650E0,-6.110985875E-1
5.802158250E0,-1.747466125E0,-3.748804321E0,-1.907782745E0,5.807186250E0,8.407967091E-1,-2.226094007E0,-5.629738569E-1
5.812214250E0,-1.669927368E0,-3.378175049E0,-1.773661652E0,5.817242250E0,1.162003756E0,-2.167781591E0,-4.899877906E-1
5.822270250E0,-1.660197601E0,-3.034639435E0,-1.813029785E0,5.827298250E0,1.412597775E0,-2.185182095E0,-3.967385888E-1
5.832326250E0,-1.335073700E0,-3.072211304E0,-2.390229492E0,5.837354250E0,1.623696208E0,-2.168066740E0,-2.474031746E-1
5.842382250E0,-1.163231049E0,-4.011508026E0,-2.798131256E0,5.847410250E0,1.818764687E0,-2.073684216E0,-2.579964511E-2
5.852438250E0,-1.286275177E0,-5.242248688E0,-3.171754303E0,5.857466250E0,2.053997040E0,-1.886593223E0,1.425611377E-1
5.862494250E0,-1.522184601E0,-6.139782257E0,-3.130140839E0,5.867522250E0,2.278414488E0,-1.426774621E0,2.685390413E-1
5.872550250E0,-2.023941193E0,-7.186256104E0,-2.309696960E0,5.877578250E0,2.351523399E0,-9.020956755E-1,3.272915781E-1
5.882606250E0,-2.286944275E0,-8.289611664E0,-2.299518127E0,5.887634250E0,2.324460506E0,-2.166884840E-1,3.466116190E-1
5.892661250E0,-2.794538727E0,-1.007929001E1,-1.770667877E0,5.897689250E0,2.155517817E0,3.462334573E-1,2.907709777E-1
5.902717250E0,-3.643872528E0,-1.144924118E1,-3.168311462E0,5.907745250E0,1.473904133E0,4.127830267E-1,3.056324422E-1
5.912773250E0,-4.724325714E0,-1.365550323E1,-6.836583252E0,5.917801250E0,1.436630785E-1,-1.886564791E-1,5.087338686E-1
5.922829250E0,-5.737868042E0,-1.764485733E1,-1.128039230E1,5.927857250E0,-1.310890436E0,-1.283875227E0,6.977338195E-1
5.932885250E0,-5.996530151E0,-2.113440079E1,-1.430245789E1,5.937913250E0,-2.360787868E0,-1.984464049E0,5.157946348E-1
5.942941250E0,-5.680686951E0,-2.039927948E1,-1.514266068E1,5.947969250E0,-2.460169077E0,-1.855777860E0,2.838077582E-2
5.952997250E0,-4.552932129E0,-1.611937958E1,-1.406295593E1,5.958025250E0,-1.774956584E0,-1.399504900E0,-2.147181481E-1
5.963053250E0,-2.664908295E0,-1.316632050E1,-1.087638245E1,5.968081250E0,-1.175693631E0,-1.367089748E0,-4.861081243E-1
5.973109250E0,-1.872156830E0,-1.036459671E1,-8.689130859E0,5.978137250E0,-1.107664585E0,-1.983179569E0,-6.517820358E-1
5.983165250E0,-1.359472961E0,-8.502918091E0,-6.979535980E0,5.988192250E0,-1.285328269E0,-2.391592503E0,-6.807382107E-1
5.993220250E0,-3.330574036E-1,-7.161108398E0,-4.943170624E0,5.998248250E0,-1.382747531E0,-2.279186487E0,-5.999413729E-1
6.003276250E0,6.538403320E-1,-6.085295563E0,-4.080215149E0,6.008304250E0,-1.118842840E0,-1.534777045E0,-4.493385851E-1
6.013332250E0,9.954299927E-1,-4.583318939E0,-3.979025574E0,6.018360250E0,-6.150880456E-1,-6.912918687E-1,-2.317072004E-1
6.023388250E0,-9.280700684E-3,-2.914888458E0,-4.754263458E0,6.028416250E0,-1.482428610E-1,-1.442423612E-1,-4.918578640E-2
6.033444250E0,-2.809357910E0,-3.946243744E0,-5.058730316E0,6.038472250E0,2.833641768E-1,9.357633442E-2,2.126168013E-1
6.043500250E0,-4.983137512E0,-8.006400604E0,-4.268822937E0,6.048528250E0,7.875105739E-1,3.839735091E-1,4.158768654E-1
6.053556250E0,-7.102729797E0,-1.145672562E1,-2.289638672E0,6.058584250E0,1.323614240E0,7.978711128E-1,4.776214659E-1
6.063612250E0,-9.633966064E0,-1.513966690E1,2.354603577E-1,6.068640250E0,1.664275408E0,1.236151695E0,6.226192713E-1
6.073668250E0,-1.186702240E1,-1.977537689E1,2.597398682E0,6.078696250E0,1.464437962E0,1.352245569E0,4.828224480E-1
6.083724250E0,-1.195264435E1,-2.057815750E1,2.187850342E0,6.088751250E0,8.648310304E-1,1.460496187E0,-3.162088618E-2
6.093779250E0,-7.222780151E0,-1.660272446E1,4.764591980E0,6.098807250E0,5.060265660E-1,1.700826764E0,-4.387881458E-1
6.103835250E0,-1.157093811E0,-1.170700516E1,7.999814301E0,6.108863250E0,3.699428439E-1,1.449321508E0,-5.347973704E-1
6.113891250E0,2.972817993E-1,-8.474626923E0,5.916596375E0,6.118919250E0,2.383592427E-1,1.285117388E0,-3.618485034E-1
6.123947250E0,4.131408691E-2,-6.537355499E0,3.443139954E0,6.128975250E0,1.807739735E-1,1.409885049E0,-1.363034844E-1
6.134003250E0,-2.344125366E-1,-4.835993500E0,3.415746918E0,6.139031250E0,2.508324087E-1,1.812880754E0,4.092216119E-2
6.144059250E0,-5.607339478E-1,-3.766168213E0,4.060007172E0,6.149087250E0,5.019067526E-1,2.148398876E0,1.831943095E-1
6.154115250E0,-8.845106506E-1,-3.566932526E0,3.180286560E0,6.159143250E0,9.164695740E-1,2.367942810E0,3.125663996E-1
6.164171250E0,-1.501826935E0,-4.325704651E0,2.338736572E0,6.169199250E0,1.401572227E0,2.709615946E0,4.674922526E-1
6.174227250E0,-2.281256104E0,-6.191873932E0,2.525398407E0,6.179255250E0,1.839342713E0,3.204563618E0,6.754521132E-1
6.184283250E0,-2.952160950E0,-8.211773529E0,2.945574646E0,6.189310250E0,2.198868990E0,3.743962049E0,9.660461545E-1
6.194338250E0,-3.640130310E0,-1.009440857E1,2.992127838E0,6.199366250E0,2.358196735E0,4.239575386E0,1.251871824E0
6.204394250E0,-3.994144135E0,-1.110839996E1,2.906655579E0,6.209422250E0,2.279779196E0,4.608512878E0,1.362860203E0
6.214450250E0,-4.111500092E0,-1.141271713E1,2.799478455E0,6.219478250E0,1.895828962E0,4.402780533E0,1.254507422E0
6.224506250E0,-4.215683441E0,-1.296424072E1,1.459764404E0,6.229534250E0,1.180285573E0,3.189107895E0,7.946162820E-1
6.234562250E0,-3.819756775E0,-1.431353485E1,-1.604663086E-1,6.239590250E0,6.629756093E-1,1.693065405E0,4.198525846E-1
6.244618250E0,-2.125430145E0,-1.220666611E1,-5.031037903E-1,6.249646250E0,5.796182752E-1,4.830533862E-1,1.816489249E-1
6.254674250E0,-1.111139374E0,-8.774902496E0,6.730004883E-1,6.259702250E0,1.033707500E0,-1.575239301E-1,-1.098481789E-1
6.264730250E0,-3.869453430E-1,-6.884932709E0,1.380579071E0,6.269758250E0,1.757439852E0,-1.147969246E0,-3.668300509E-1
6.274786250E0,4.388873291E-1,-7.192543030E0,-2.321821747E0,6.279814250E0,2.283369303E0,-2.074088573E0,-4.609983563E-1
6.284842250E0,9.975256348E-1,-8.313412170E0,-3.405418396E0,6.289869250E0,2.379172564E0,-2.346873999E0,-3.525461853E-1
6.294897250E0,1.360221405E0,-8.666677551E0,-2.468367004E0,6.299925250E0,2.066564560E0,-1.718011260E0,-1.131746098E-1
6.304953250E0,1.244212646E0,-8.337961121E0,-7.458988953E-1,6.309981250E0,1.513050675E0,-4.899906814E-1,-6.492745876E-2
6.315009250E0,3.147953796E-1,-7.621999969E0,1.283281403E0,6.320037250E0,9.945203066E-1,7.058790922E-1,-6.526967883E-2
6.325065250E0,-3.923341370E-1,-8.313262482E0,1.976789246E0,6.330093250E0,7.592233419E-1,1.195253491E0,-3.325943649E-2
6.335121250E0,-7.391629028E-1,-8.983119507E0,2.365081787E-1,6.340149250E0,7.463024855E-1,1.131474257E0,9.683234617E-3
6.345177250E0,-9.885443115E-1,-9.418863373E0,-1.012045441E0,6.350205250E0,8.301451802E-1,9.640516639E-1,1.684361370E-3
6.355233250E0,-9.633966064E-1,-9.768087158E0,-1.086590424E0,6.360261250E0,9.048969150E-1,9.399207830E-1,2.363679931E-2
6.365289250E0,-5.236111450E-1,-9.631271667E0,-8.473878479E-1,6.370317250E0,9.713918567E-1,1.017379165E0,7.021067291E-2
6.375345250E0,-5.987548828E-2,-9.421557770E0,-7.909552002E-1,6.380373250E0,1.042816520E0,1.082089782E0,1.291951686E-1
6.385401250E0,1.139131165E-1,-9.885443115E0,-1.179397430E0,6.390429250E0,1.083365798E0,1.005711317E0,1.245794818E-1
6.395456250E0,1.884580994E-1,-9.952204285E0,-1.393452301E0,6.400484250E0,1.096886873E0,9.127504826E-1,3.463253751E-2
6.405512250E0,3.023712158E-1,-9.509275360E0,-8.831634521E-1,6.410540250E0,1.053748369E0,6.854717135E-1,-2.996129729E-2
6.415568250E0,2.312690735E-1,-9.628427582E0,-9.586065674E-1,6.420596250E0,9.707171321E-1,3.470257521E-1,2.477601869E-3
6.425624250E0,-1.082249451E-1,-9.853858795E0,-1.189426575E0,6.430652250E0,8.929473162E-1,5.773296952E-2,1.134007722E-1
6.435680250E0,-4.607418823E-1,-9.551936646E0,-1.199904785E0,6.440708250E0,8.923233151E-1,-1.347097158E-1,2.188291997E-1
6.445736250E0,-6.976991272E-1,-9.042396240E0,-1.202150116E0,6.450764250E0,9.767497182E-1,-2.846900821E-1,3.018434346E-1
6.455792250E0,-8.596623230E-1,-8.750503235E0,-1.358874207E0,6.460820250E0,1.106202483E0,-3.888961077E-1,3.113279939E-1
6.465848250E0,-1.015937347E0,-8.360115051E0,-1.333127747E0,6.470875792E0,1.190298796E0,-4.017979205E-1,2.694165409E-1
6.475903792E0,-1.206940155E0,-8.320297852E0,-1.141675873E0,6.480931792E0,1.163426161E0,-3.195256889E-1,2.550333440E-1
6.485959792E0,-1.307680664E0,-8.804540863E0,-9.771679688E-1,6.490987792E0,1.045315742E0,-1.550793499E-1,2.642121613E-1
6.496015792E0,-1.196312256E0,-9.350305939E0,-7.065307617E-1,6.501042792E0,8.799914718E-1,7.251626253E-2,2.923750877E-1
6.506070792E0,-4.704716492E-1,-9.754615173E0,-3.592529297E-1,6.511098792E0,7.097654343E-1,2.620755732E-1,2.902835310E-1
6.516126792E0,1.076261902E-1,-9.776320038E0,-1.683998108E-1,6.521154792E0,5.717013478E-1,3.551610410E-1,2.143021971E-1
6.526182792E0,2.927911377E-1,-9.813742218E0,-2.692900085E-1,6.531210792E0,4.752856791E-1,3.678541481E-1,1.194996610E-1
6.536238792E0,2.781216431E-1,-1.017853363E1,-3.360511780E-1,6.541266792E0,4.421714246E-1,3.225894570E-1,3.991401568E-2
6.546294792E0,2.439926147E-2,-1.071456894E1,-4.682263184E-1,6.551322792E0,4.670698047E-1,2.463125736E-1,-2.409223095E-2
6.556350792E0,-3.375480652E-1,-1.130254623E1,-8.943901062E-1,6.561378792E0,4.421215951E-1,2.175445706E-1,-7.349599898E-2
6.566406792E0,-7.000941467E-1,-1.150447632E1,-1.216220856E0,6.571434792E0,3.453438282E-1,2.411419004E-1,-1.091159359E-1
6.576462792E0,-5.739065552E-1,-1.145687531E1,-1.406475220E0,6.581490792E0,2.035968155E-1,3.152206838E-1,-1.155259013E-1
6.586518792E0,-1.318757629E-1,-1.144954056E1,-1.342857513E0,6.591546792E0,4.042573646E-2,4.456689656E-1,-7.961130887E-2
6.596574792E0,2.633024597E-1,-1.144280457E1,-1.151705017E0,6.601601792E0,-8.265758306E-2,5.987969637E-1,-1.904623024E-2
6.606629792E0,5.399272156E-1,-1.155102951E1,-1.269510040E0,6.611657792E0,-1.224975064E-1,6.630787253E-1,4.615875706E-2
6.616685792E0,6.360273743E-1,-1.175595337E1,-1.944157104E0,6.621713792E0,-1.117801517E-1,5.995886922E-1,9.695588797E-2
6.626741792E0,6.447093201E-1,-1.202060303E1,-2.758463745E0,6.631769792E0,-1.156381518E-1,4.455262423E-1,1.052015275E-1
6.636797792E0,7.062313843E-1,-1.218121902E1,-3.264411621E0,6.641825792E0,-2.324531972E-1,2.245254070E-1,4.808124527E-2
6.646853792E0,8.762777710E-1,-1.243554016E1,-3.281326447E0,6.651881792E0,-4.977727532E-1,-9.815040976E-2,-8.772196621E-2
6.656909792E0,1.290167084E0,-1.281889297E1,-3.027604065E0,6.661937792E0,-8.290612102E-1,-5.302562714E-1,-3.037181497E-1
6.666965792E0,1.708696747E0,-1.311677353E1,-2.565365295E0,6.671993792E0,-1.136059761E0,-1.004829526E0,-5.268471837E-1
6.677021792E0,1.961670685E0,-1.322993820E1,-2.148332520E0,6.682049792E0,-1.396229863E0,-1.352340817E0,-7.012227178E-1
6.687077792E0,2.314487000E0,-1.318488190E1,-1.429527283E0,6.692105792E0,-1.611240029E0,-1.342051744E0,-7.779806256E-1
6.697133792E0,2.423460388E0,-1.303863602E1,-4.963677979E-1,6.702161792E0,-1.851643801E0,-1.120158195E0,-7.641031742E-1
6.707189792E0,1.810634766E0,-1.252280869E1,-6.282435608E-1,6.712216792E0,-2.081049681E0,-9.910442829E-1,-6.697963476E-1
6.717244792E0,7.258406067E-1,-1.193677734E1,-1.625918884E0,6.722272792E0,-2.265783787E0,-8.912779689E-1,-4.286377728E-1
6.727300792E0,-1.297352142E0,-1.108759323E1,-1.770667877E0,6.732328792E0,-2.462340593E0,-7.261601686E-1,-2.065278292E-1
6.737356792E0,-3.753444672E0,-1.033885025E1,-1.028660889E0,6.742384792E0,-2.657650948E0,-6.793811917E-1,8.512878418E-2
6.747412792E0,-5.244194641E0,-1.085243225E1,7.259902954E-2,6.752440792E0,-2.810702085E0,-5.302538276E-1,2.891574204E-1
6.757468792E0,-5.470673676E0,-1.121602615E1,2.281405792E0,6.762496792E0,-2.788439989E0,-1.315303892E-1,3.225143254E-1
6.767524792E0,-4.953199768E0,-1.091200836E1,4.627028046E0,6.772552792E0,-2.641299486E0,5.540055037E-1,2.602971196E-1
6.777580792E0,-4.923860779E0,-1.106678650E1,6.434219971E0,6.782608792E0,-2.406805038E0,1.582504749E0,1.878263652E-1
6.787636792E0,-5.722749481E0,-1.247505798E1,8.124355316E0,6.792664792E0,-2.072772980E0,2.849223614E0,2.370961308E-1
6.797692792E0,-6.644233246E0,-1.332499054E1,8.742719421E0,6.802720792E0,-1.710199118E0,3.828850269E0,2.968036532E-1
6.807748792E0,-6.873556366E0,-1.288700134E1,6.503525848E0,6.812776792E0,-1.565680265E0,4.058791161E0,2.134578824E-1
6.817803792E0,-6.586902466E0,-1.195024933E1,2.425106964E0,6.822831792E0,-1.584037185E0,3.326431036E0,5.330922082E-2
6.827859792E0,-6.308780823E0,-1.118713623E1,-4.668192444E0,6.832887792E0,-1.461627483E0,1.364220738E0,-1.092051119E-1
6.837915792E0,-6.385571136E0,-1.111408813E1,-1.224812988E1,6.842943792E0,-1.345129609E0,-1.715331525E-1,-2.752454579E-1
6.847971792E0,-5.787115631E0,-1.102337677E1,-9.999356232E0,6.852999792E0,-1.318948150E0,-3.162313700E-1,-3.690267503E-1
6.858027792E0,-4.496948547E0,-1.027538223E1,-4.173471222E0,6.863055792E0,-1.420129180E0,2.693066895E-1,-3.173773885E-1
6.868083792E0,-3.421734467E0,-9.759105835E0,-1.473535767E0,6.873111792E0,-1.580869913E0,9.500596523E-1,-2.380886227E-1
6.878139792E0,-2.379302216E0,-8.525371399E0,-2.636018372E-1,6.883167792E0,-1.548583150E0,1.471016288E0,-1.926998347E-1
6.888195792E0,-1.625320129E0,-6.751560059E0,7.128176880E-1,6.893223792E0,-1.364429355E0,1.559497356E0,-2.270911187E-1
6.898251792E0,-1.216370544E0,-6.398893433E0,3.308120728E-2,6.903279792E0,-9.589234591E-1,5.426083803E-1,-2.687575817E-1
6.908307792E0,-1.372795258E0,-6.880891113E0,-2.039209442E0,6.913335792E0,-5.050439239E-1,-1.563033462E0,-3.808977902E-1
6.918363792E0,-9.117539978E-1,-7.316784668E0,-2.852019196E0,6.923391792E0,-7.727648020E-1,-2.816282988E0,-3.838256598E-1
6.928418792E0,5.538482666E-2,-7.278314667E0,5.008584595E-1,6.933446792E0,-1.327216029E0,-2.669741154E0,-2.254103720E-1
6.938474792E0,4.951702881E-1,-6.624624023E0,3.686533813E0,6.943502792E0,-1.834431767E0,-1.975767136E0,-1.886363775E-1
6.948530792E0,9.530680847E-1,-6.294710083E0,4.114194489E0,6.953558792E0,-2.020813227E0,-1.315624356E0,-2.412112057E-1
6.958586792E0,7.089257812E-1,-6.277495880E0,2.952759705E0,6.963614792E0,-1.964563370E0,-1.157790542E0,-2.604637444E-1
6.968642792E0,7.334747314E-3,-6.325545959E0,2.739303589E-2,6.973670792E0,-1.718887687E0,-1.480593681E0,-2.503549159E-1
6.978698792E0,-6.500981140E-1,-6.326743469E0,-2.401456146E0,6.983726792E0,-1.344163418E0,-1.866456389E0,-2.229398191E-1
6.988754792E0,-1.369651794E0,-6.419101410E0,-3.209775238E0,6.993782792E0,-8.822860122E-1,-2.082152843E0,-2.948411703E-1
6.998810792E0,-1.829046478E0,-5.972430267E0,-2.743345184E0,7.003838792E0,-4.326104820E-1,-2.048226118E0,-4.028316140E-1
7.008866792E0,-2.144440613E0,-5.334157562E0,-1.685794373E0,7.013894792E0,-3.103393689E-2,-1.961434603E0,-4.133230150E-1
7.018922792E0,-2.352208557E0,-4.786745911E0,-1.073717194E0,7.023950792E0,2.892758846E-1,-1.825199842E0,-3.747644424E-1
7.028978792E0,-2.576591949E0,-4.141288147E0,-3.382965088E-1,7.034005792E0,5.725169778E-1,-1.548783660E0,-3.485628664E-1
7.039033792E0,-2.923869781E0,-3.620371399E0,-3.682342529E-2,7.044061792E0,7.987863421E-1,-1.344533563E0,-2.680355310E-1
7.049089792E0,-3.000660095E0,-3.611539764E0,-7.854167175E-1,7.054117792E0,9.806139469E-1,-1.349471688E0,-1.529308558E-1
7.059145792E0,-2.726130981E0,-3.910468140E0,-1.811832275E0,7.064173792E0,1.190288067E0,-1.376261950E0,-9.125017375E-2
7.069201792E0,-2.314487000E0,-4.098177795E0,-2.148781586E0,7.074229792E0,1.383878708E0,-1.372161627E0,7.232524455E-3
7.079257792E0,-2.124981079E0,-5.004842377E0,-2.459235992E0,7.084285792E0,1.490043521E0,-1.362061620E0,1.889019310E-1
7.089313792E0,-2.202669525E0,-6.512207794E0,-2.994522858E0,7.094341792E0,1.485897660E0,-1.456759572E0,3.405365050E-1
7.099369792E0,-2.158361664E0,-7.718399506E0,-3.639980621E0,7.104397792E0,1.492311835E0,-1.401783109E0,4.825258553E-1
7.109425792E0,-2.306403809E0,-9.010811920E0,-3.396287384E0,7.114453792E0,1.492826462E0,-1.179236889E0,5.639015436E-1
7.119481792E0,-2.655328217E0,-1.026804749E1,-3.739822998E0,7.124509792E0,1.393271327E0,-8.683866262E-1,5.340453386E-1
7.129537792E0,-2.995121613E0,-1.154174881E1,-4.640649719E0,7.134565792E0,1.116482258E0,-6.338387132E-1,3.622255027E-1
7.139593792E0,-3.193908234E0,-1.226489502E1,-5.875132599E0,7.144620792E0,6.792120337E-1,-6.607472897E-1,7.269062102E-2
7.149648792E0,-3.356320496E0,-1.258328293E1,-7.402855682E0,7.154676792E0,2.431400120E-1,-8.750407100E-1,-9.646520764E-2
7.159704792E0,-3.376528473E0,-1.277114227E1,-8.362360382E0,7.164732792E0,-1.348205954E-1,-1.046005607E0,-6.885755062E-2
7.169760792E0,-2.962339783E0,-1.183139648E1,-9.267079010E0,7.174788792E0,-4.046430290E-1,-9.299678802E-1,-3.367222846E-3
7.179816792E0,-2.860701141E0,-1.079809525E1,-1.029439270E1,7.184844792E0,-3.682165742E-1,-4.814668298E-1,5.383720994E-2
7.189872792E0,-3.178789673E0,-1.051368668E1,-1.069226532E1,7.194900792E0,-2.521569654E-2,1.688242145E-2,8.596209437E-2
7.199928792E0,-3.603306885E0,-1.072534653E1,-1.002959335E1,7.204956792E0,2.753377557E-1,-1.110367291E-2,6.729014218E-2
7.209984792E0,-4.440815277E0,-1.114567245E1,-8.696166229E0,7.215012792E0,1.766561568E-1,-3.711018562E-1,-1.279844786E-3
7.220040792E0,-5.368286591E0,-1.123818008E1,-5.452411652E0,7.225068792E0,-1.350841522E-1,-7.129489779E-1,-2.156952024E-1
7.230096792E0,-5.902375946E0,-1.045620621E1,-2.877017212E0,7.235124792E0,-4.611096382E-1,-1.213999152E0,-4.167423248E-1
7.240152792E0,-5.676046600E0,-9.626331940E0,-2.831212463E0,7.245180792E0,-7.458883524E-1,-1.823768258E0,-4.201775491E-1
7.250208792E0,-4.019591217E0,-9.266629944E0,-3.972588959E0,7.255235792E0,-9.628246427E-1,-2.234474182E0,-3.932254910E-1
7.260263792E0,-2.160606995E0,-8.799152069E0,-5.002746735E0,7.265291792E0,-1.012851119E0,-2.240961790E0,-3.385816813E-1
7.270319792E0,-1.118025055E0,-9.047036591E0,-6.055208130E0,7.275347792E0,-7.946605086E-1,-1.868758202E0,-2.113257349E-1
7.280375792E0,-4.695735168E-1,-9.496102753E0,-6.879394226E0,7.285403792E0,-3.712674379E-1,-1.187764525E0,-5.124524981E-2
7.290431792E0,-6.875202942E-1,-9.499246216E0,-6.699318695E0,7.295459792E0,1.112960353E-1,-5.507056713E-1,-3.099656105E-2
7.300487792E0,-1.901795197E0,-9.489366760E0,-6.111042023E0,7.305515792E0,5.523461699E-1,-4.380387068E-2,-9.253661335E-2
7.310543792E0,-3.068169708E0,-1.034244278E1,-4.725972290E0,7.315571792E0,9.511523247E-1,4.924910665E-1,-1.235592067E-1
7.320599792E0,-4.275109863E0,-1.212568451E1,-1.976489868E0,7.325627792E0,1.173851490E0,1.093002200E0,-1.749877781E-1
7.330655792E0,-5.288502502E0,-1.325568466E1,1.103505249E0,7.335683792E0,1.132650375E0,1.577284813E0,-2.223673612E-1
7.340711792E0,-5.741460571E0,-1.368813538E1,3.175346832E0,7.345739792E0,8.046059012E-1,1.755115509E0,-3.118511438E-1
7.350767792E0,-5.265749817E0,-1.253029312E1,3.987258453E0,7.355795792E0,4.148651659E-1,1.806919098E0,-4.941469133E-1
7.360823792E0,-3.560645599E0,-9.997260590E0,4.379891968E0,7.365850792E0,1.711486429E-1,1.543935180E0,-5.816684961E-1
7.370878792E0,-2.099833374E0,-7.991282043E0,3.556304626E0,7.375906792E0,4.739588872E-2,1.220037699E0,-5.001865625E-1
7.380934792E0,-1.576072540E0,-6.454577637E0,3.182531891E0,7.385962792E0,1.272819005E-2,9.507240057E-1,-3.610070944E-1
7.390990792E0,-1.465003510E0,-5.024002533E0,2.714155884E0,7.396018792E0,1.362583041E-1,6.909638643E-1,-2.084113210E-1
7.401046792E0,-1.376836853E0,-4.251159668E0,1.244512024E0,7.406074792E0,4.563199282E-1,4.420805871E-1,-3.320968524E-2
7.411102792E0,-1.400936737E0,-4.748126221E0,-2.625540161E-1,7.416130792E0,8.348641992E-1,4.139804840E-1,1.016650945E-1
7.421158792E0,-1.805545349E0,-6.163582764E0,-5.435197449E-1,7.426186792E0,1.163898349E0,6.933615208E-1,1.966360956E-1
7.431214792E0,-2.152224426E0,-7.765401764E0,-3.442840576E-2,7.436242792E0,1.476826072E0,1.192106247E0,2.403739244E-1
7.441270792E0,-2.266287231E0,-9.763446808E0,1.199755096E0,7.446298792E0,1.744677186E0,1.753161311E0,2.420751452E-1
7.451326792E0,-2.528392181E0,-1.199006653E1,2.509830780E0,7.456354792E0,1.907619715E0,2.291204929E0,2.432709336E-1
7.461382792E0,-2.890489197E0,-1.324370956E1,3.876937866E0,7.466410792E0,1.733782887E0,2.600995064E0,1.328618675E-1
7.471438792E0,-2.731070709E0,-1.371328308E1,4.214336243E0,7.476467500E0,1.263287425E0,2.333370686E0,-1.091631502E-1
7.481494500E0,-2.043101349E0,-1.278985336E1,2.867287445E0,7.486522500E0,8.296291232E-1,1.709141612E0,-2.887392938E-1
7.491550500E0,-1.144519958E0,-1.068373306E1,1.719923401E0,7.496578500E0,5.754157305E-1,9.398671389E-1,-4.100253880E-1
7.501606500E0,-8.578660583E-1,-8.604856110E0,1.159638519E0,7.506634500E0,5.408406854E-1,1.887912452E-1,-5.058872104E-1
7.511662500E0,-7.405101013E-1,-7.316185913E0,8.734336853E-1,7.516690500E0,7.057745457E-1,-4.054348767E-1,-6.246098876E-1
7.521718500E0,-4.257147217E-1,-6.632856903E0,3.712280273E-2,7.526746500E0,1.140689492E0,-1.015760779E0,-6.618704796E-1
7.531774500E0,-3.796105957E-1,-6.998696136E0,-3.797752533E0,7.536802500E0,1.619616747E0,-1.417960286E0,-4.974893332E-1
7.541830500E0,-8.672964478E-1,-8.240663452E0,-5.459147644E0,7.546858500E0,1.686138868E0,-1.160257936E0,-2.709075809E-1
7.551886500E0,-1.382225647E0,-8.489745483E0,-2.241438904E0,7.556914500E0,1.349099159E0,-3.685284853E-1,-1.914940625E-1
7.561942500E0,-1.578317871E0,-7.901917877E0,1.377285919E0,7.566970500E0,9.241907597E-1,4.186864793E-1,-1.688633263E-1
7.571998500E0,-1.472637634E0,-8.001909943E0,3.000360718E0,7.577026500E0,6.667532325E-1,7.214657068E-1,-8.535782993E-2
7.582054500E0,-1.410965881E0,-8.795709229E0,2.428100739E0,7.587082500E0,6.112002134E-1,5.883098245E-1,1.400151104E-2
7.592110500E0,-1.639091492E0,-9.165590057E0,1.208437042E0,7.597137500E0,7.143511772E-1,2.133282125E-1,4.950441793E-2
7.602165500E0,-2.005230103E0,-9.142537994E0,2.471360779E-1,7.607193500E0,9.040449262E-1,-1.836273968E-1,3.691485524E-2
7.612221500E0,-2.087858276E0,-9.340725861E0,-4.623884583E-1,7.617249500E0,1.095274091E0,-3.837834895E-1,6.966424733E-2
7.622277500E0,-1.690883789E0,-9.597442017E0,-7.762857056E-1,7.627305500E0,1.225158572E0,-2.850435972E-1,1.095671877E-1
7.632333500E0,-1.522783356E0,-9.445358276E0,-4.649331665E-1,7.637361500E0,1.304182887E0,7.213179022E-2,1.414678842E-1
7.642389500E0,-1.497485962E0,-9.143585815E0,-5.628295898E-2,7.647417500E0,1.321172833E0,4.344034493E-1,1.987514198E-1
7.652445500E0,-1.446591797E0,-9.125024414E0,-8.741821289E-2,7.657473500E0,1.277191639E0,6.417421103E-1,2.126387209E-1
7.662501500E0,-1.371897125E0,-9.460027771E0,-1.959425354E-1,7.667529500E0,1.206746817E0,6.832293272E-1,1.689508855E-1
7.672557500E0,-1.062640228E0,-9.213939514E0,-3.436853027E-1,7.677585500E0,1.087022901E0,6.488518715E-1,1.779064387E-1
7.682613500E0,-8.608598328E-1,-9.202563171E0,-5.322930908E-1,7.687641500E0,9.502861500E-1,6.125380397E-1,2.287810743E-1
7.692669500E0,-7.978408813E-1,-9.087602234E0,-7.141648865E-1,7.697697500E0,8.703712821E-1,6.651820540E-1,2.686442137E-1
7.702725500E0,-7.758366394E-1,-8.594527588E0,-4.580474854E-1,7.707753500E0,8.889164329E-1,7.948812246E-1,2.908437848E-1
7.712780500E0,-8.247848511E-1,-8.453071747E0,-1.844165039E-1,7.717808500E0,9.621376991E-1,8.294603825E-1,3.259922564E-1
7.722836500E0,-9.337582397E-1,-8.466394043E0,-2.902464294E-1,7.727864500E0,1.001427293E0,7.143108845E-1,3.604788482E-1
7.732892500E0,-1.094972992E0,-8.603059845E0,-5.174739075E-1,7.737920500E0,1.026629567E0,5.219544768E-1,3.814305067E-1
7.742948500E0,-1.283580780E0,-8.621022491E0,-6.991960144E-1,7.747976500E0,1.086567640E0,2.766517699E-1,3.748013675E-1
7.753004500E0,-1.092128906E0,-8.630901947E0,-8.990304565E-1,7.758032500E0,1.173240304E0,3.104070947E-2,3.653439879E-1
7.763060500E0,-4.737648010E-1,-8.819809113E0,-9.273216248E-1,7.768088500E0,1.216514587E0,-1.371637434E-1,3.095182776E-1
7.773116500E0,1.242416382E-1,-9.115144958E0,-8.119116211E-1,7.778144500E0,1.162972212E0,-1.970292479E-1,2.461768240E-1
7.783172500E0,5.749543762E-1,-9.452094269E0,-5.770500183E-1,7.788200500E0,1.020794511E0,-9.937220067E-2,1.915138364E-1
7.793228500E0,9.677375793E-1,-9.617799683E0,-1.487905884E-1,7.798256500E0,8.273153901E-1,1.101103276E-1,1.586516649E-1
7.803284500E0,1.117575989E0,-9.838590546E0,2.297721863E-1,7.808312500E0,6.469475031E-1,3.433339894E-1,1.525956392E-1
7.813340500E0,9.786648560E-1,-1.011626312E1,2.621049500E-1,7.818368500E0,5.274422765E-1,4.351170063E-1,1.341149211E-1
7.823396500E0,5.391787720E-1,-1.030846344E1,-1.841171265E-1,7.828423500E0,4.384391606E-1,3.463216126E-1,7.512830943E-2
7.833451500E0,-6.167175293E-2,-1.037597305E1,-5.176235962E-1,7.838479500E0,3.553895056E-1,2.060121745E-1,-1.534819603E-6
7.843507500E0,-2.222877502E-1,-1.076920532E1,-4.138893127E-1,7.848535500E0,2.900528312E-1,1.009874791E-1,-6.232829019E-2
7.853563500E0,-1.005908203E-1,-1.119911133E1,-2.390528870E-1,7.858591500E0,2.518175840E-1,6.113361567E-2,-1.008581296E-1
7.863619500E0,8.696914673E-2,-1.153007309E1,-1.544787598E-1,7.868647500E0,2.517640591E-1,8.191533387E-2,-1.095528230E-1
7.873675500E0,3.043171692E-1,-1.194650711E1,-2.860551453E-1,7.878703500E0,2.823351324E-1,1.230289862E-1,-9.760938585E-2
7.883731500E0,4.382885742E-1,-1.223435852E1,-7.696994019E-1,7.888759500E0,3.158880174E-1,1.637694836E-1,-7.760585099E-2
7.893787500E0,4.424798584E-1,-1.243045074E1,-1.349743195E0,7.898815500E0,3.270527124E-1,2.356340885E-1,-5.992550403E-2
7.903843500E0,2.927911377E-1,-1.257100845E1,-1.868564301E0,7.908871500E0,2.942242026E-1,3.381862938E-1,-4.206128418E-2
7.913899500E0,3.547622681E-2,-1.264570312E1,-2.486030273E0,7.918927500E0,2.159738094E-1,4.803982377E-1,-5.784688983E-3
7.923955500E0,-8.592132568E-2,-1.254960297E1,-3.216211853E0,7.928983500E0,7.630991191E-2,6.283213496E-1,-1.752842963E-2
7.934010500E0,1.106199646E-1,-1.249840942E1,-3.805386658E0,7.939038500E0,-2.012583911E-1,7.082760930E-1,-1.146664470E-1
7.944066500E0,6.185137939E-1,-1.260049713E1,-3.866908722E0,7.949094500E0,-6.495839953E-1,6.717218161E-1,-2.593714297E-1
7.954122500E0,1.063987427E0,-1.308159668E1,-3.131787415E0,7.959150500E0,-1.112660289E0,5.093628168E-1,-4.202656150E-1
7.964178500E0,1.303339691E0,-1.379201935E1,-2.260449371E0,7.969206500E0,-1.431622267E0,2.758139968E-1,-5.805216432E-1
7.974234500E0,1.420096893E0,-1.407567947E1,-2.010918274E0,7.979262500E0,-1.674731493E0,1.008942425E-1,-7.168781161E-1
7.984290500E0,1.745520172E0,-1.339250015E1,-1.811682587E0,7.989318500E0,-1.962148070E0,-1.662210673E-1,-8.581779599E-1
7.994346500E0,2.122436371E0,-1.208511887E1,-1.715732117E0,7.999374500E0,-2.213268995E0,-7.094287872E-1,-9.987200499E-1
8.004402500E0,2.188299408E0,-1.086246140E1,-1.876198425E0,8.009430500E0,-2.418242931E0,-1.321101785E0,-8.833580613E-1
8.014458500E0,1.082548828E0,-1.058329193E1,-1.937421112E0,8.019486500E0,-2.586597681E0,-1.512588024E0,-4.503247440E-1
8.024514500E0,-1.006806335E0,-1.012704071E1,-3.984713745E-1,8.029542500E0,-2.783123016E0,-1.237766027E0,-2.072428614E-1
8.034570500E0,-3.339405670E0,-1.006117767E1,1.347647552E0,8.039598500E0,-3.064788580E0,-7.641138434E-1,-1.325295269E-1
8.044626500E0,-4.393663330E0,-1.138158188E1,2.432591400E0,8.049653500E0,-3.213903666E0,-2.131402194E-1,-1.920810044E-1
8.054681500E0,-4.050876160E0,-1.222612564E1,3.829486542E0,8.059709500E0,-3.226491213E0,4.871680140E-1,-2.618041933E-1
8.064737500E0,-3.883224792E0,-1.307800415E1,5.023104401E0,8.069765500E0,-3.157865047E0,1.337641597E0,-2.997792661E-1
8.074793500E0,-4.290827179E0,-1.501497620E1,5.687273254E0,8.079821500E0,-2.903068542E0,2.237154245E0,-1.181542575E-1
8.084849500E0,-5.236111450E0,-1.721749603E1,5.979765015E0,8.089877500E0,-2.511509895E0,3.074443340E0,2.869508862E-1
8.094905500E0,-6.144572296E0,-1.790636353E1,5.594466248E0,8.099933500E0,-2.116560459E0,3.589967012E0,7.059741020E-1
8.104961500E0,-6.669530640E0,-1.663341064E1,2.997217255E0,8.109989500E0,-1.757324338E0,3.007583380E0,8.654500842E-1
8.115017500E0,-7.164401550E0,-1.436936874E1,-5.290747833E0,8.120045500E0,-1.711275697E0,1.149304032E0,7.167152166E-1
8.125073500E0,-7.899822235E0,-1.243359421E1,-1.268881348E1,8.130101500E0,-1.910309196E0,5.524684191E-1,2.309862524E-2
8.135129500E0,-9.580527191E0,-9.535021820E0,-6.714736633E0,8.140157500E0,-2.080612659E0,1.506545901E0,-5.111606717E-1
8.145185500E0,-8.744365997E0,-9.525142365E0,-5.520520020E-1,8.150213500E0,-2.021830082E0,2.075638294E0,-6.662431955E-1
8.155241500E0,-5.034929810E0,-9.814790039E0,-1.684147797E0,8.160268500E0,-1.327530384E0,6.456072330E-1,-8.046836853E-1
8.165296500E0,-2.817740479E0,-8.764124908E0,-5.158572693E0,8.170324500E0,-7.844816446E-1,-1.582948804E0,-1.175305367E0
8.175352500E0,-1.320553894E0,-8.370593262E0,-3.956572266E0,8.180380500E0,-1.125368834E0,-2.333291531E0,-1.319805026E0
8.185408500E0,2.516267395E-1,-7.716902618E0,4.550537109E-1,8.190436500E0,-1.728123665E0,-2.318495274E0,-1.470230937E0
8.195464500E0,1.451232147E0,-6.236930237E0,2.773133240E0,8.200492500E0,-2.272751331E0,-2.242404938E0,-1.550510645E0
8.205520500E0,1.809287567E0,-6.053112488E0,3.689527588E0,8.210548500E0,-2.683255196E0,-1.956505895E0,-1.370305419E0
8.215576500E0,2.224524078E0,-6.520440674E0,4.432133331E0,8.220604500E0,-2.963620663E0,-1.923929453E0,-1.120597482E0
8.225632500E0,2.562820587E0,-6.006708984E0,3.125350800E0,8.230660500E0,-3.136861086E0,-2.104784012E0,-8.672603369E-1
8.235688500E0,2.444416809E0,-5.423072662E0,1.692380676E0,8.240716500E0,-3.182128191E0,-2.331179619E0,-6.601272225E-1
8.245744500E0,2.147434387E0,-4.821174316E0,3.917353821E-1,8.250772500E0,-3.001513481E0,-2.599530220E0,-4.999439716E-1
8.255800500E0,1.248703308E0,-4.290677490E0,-1.191671906E0,8.260828500E0,-2.499778271E0,-2.781289577E0,-4.767541587E-1
8.265856500E0,1.496887207E-3,-4.155358887E0,-2.368075562E0,8.270884500E0,-1.774418950E0,-2.980000019E0,-5.119153857E-1
8.275911500E0,-8.756790161E-1,-4.111051025E0,-3.307222595E0,8.280939500E0,-9.588001966E-1,-3.106199980E0,-5.517778993E-1
8.285967500E0,-1.548679504E0,-3.759731598E0,-2.961441650E0,8.290995500E0,-2.550950646E-1,-2.932269573E0,-6.405794024E-1
8.296023500E0,-2.261646881E0,-3.081342316E0,-1.108594666E0,8.301051500E0,2.672846019E-1,-2.623466015E0,-7.502711415E-1
8.306079500E0,-2.883753204E0,-2.284249878E0,4.236190796E-2,8.311107500E0,6.601170897E-1,-2.407567978E0,-7.832738161E-1
8.316135500E0,-2.920127563E0,-1.940115509E0,-6.810836792E-2,8.321163500E0,9.461659789E-1,-2.297742844E0,-7.277140021E-1
8.326191500E0,-2.455942841E0,-1.734892273E0,-5.466632080E-1,8.331219500E0,1.183378816E0,-2.210746527E0,-6.262741685E-1
8.336247500E0,-1.935624847E0,-1.879790955E0,-1.167122955E0,8.341275500E0,1.416637063E0,-2.051866531E0,-5.314192772E-1
8.346303500E0,-1.579814758E0,-2.092648315E0,-1.859133911E0,8.351331500E0,1.677269459E0,-1.848010302E0,-4.499334991E-1
8.356359500E0,-1.325493622E0,-2.340233459E0,-2.759212189E0,8.361387500E0,1.950883150E0,-1.678739786E0,-3.396926224E-1
8.366415500E0,-1.140029297E0,-2.981649628E0,-3.645818481E0,8.371443500E0,2.248562098E0,-1.327277660E0,-1.951612681E-1
8.376471500E0,-1.143023071E0,-3.580554199E0,-4.108506317E0,8.381499500E0,2.442960501E0,-8.222253323E-1,-5.781847239E-2
8.386526500E0,-1.237177277E0,-4.745880890E0,-4.462220764E0,8.391554500E0,2.591006517E0,-5.043725669E-2,1.155085713E-1
8.396582500E0,-1.397044830E0,-6.836732941E0,-4.289629669E0,8.401610500E0,2.645186663E0,6.929765344E-1,2.122341841E-1
8.406638500E0,-1.698368225E0,-8.586444397E0,-4.366419983E0,8.411666500E0,2.619900942E0,1.295483828E0,1.909805536E-1
8.416694500E0,-2.591860199E0,-1.033406021E1,-4.631518707E0,8.421722500E0,2.371603012E0,1.432394862E0,1.593292356E-1
8.426750500E0,-4.259691925E0,-1.266680923E1,-6.390211487E0,8.431778500E0,1.630461693E0,8.244925141E-1,3.267368674E-1
8.436806500E0,-6.067632294E0,-1.654045395E1,-9.589209137E0,8.441834500E0,5.013779998E-1,-5.940576196E-1,6.288675070E-1
8.446862500E0,-7.182663574E0,-2.092992599E1,-1.227327759E1,8.451890500E0,-5.815487504E-1,-2.142959118E0,7.020104527E-1
8.456918500E0,-7.378306732E0,-2.241379028E1,-1.227178070E1,8.461946500E0,-1.468556523E0,-2.792228699E0,3.055689633E-1
8.466974500E0,-6.037095795E0,-1.831097214E1,-9.948611755E0,8.472002500E0,-1.940689445E0,-2.418099403E0,1.783382706E-2
8.477030500E0,-3.179837494E0,-1.408960052E1,-7.829318848E0,8.482058500E0,-1.958926201E0,-1.755201936E0,-2.047358453E-1
8.487086500E0,-1.223405914E0,-1.071007828E1,-7.331753540E0,8.492114500E0,-1.761065125E0,-1.420353174E0,-4.070172906E-1
8.497141500E0,-4.388873291E-1,-8.195457458E0,-7.787555695E0,8.502169500E0,-1.472803950E0,-1.337612748E0,-5.101293325E-1
8.507197500E0,-5.186714172E-1,-7.049590302E0,-8.002359009E0,8.512225500E0,-1.048207998E0,-1.157570720E0,-5.084845424E-1
8.517253500E0,-9.493258667E-1,-5.894592133E0,-7.755971375E0,8.522281500E0,-5.420414805E-1,-8.876602650E-1,-4.417201579E-1
8.527309500E0,-1.294508057E0,-4.360731812E0,-7.380851440E0,8.532337500E0,-8.672111481E-2,-6.385793686E-1,-3.074848354E-1
8.537365500E0,-2.390977936E0,-3.163671112E0,-6.432274017E0,8.542393500E0,1.851906776E-1,-2.079814374E-1,-1.669151038E-1
8.547421500E0,-5.797144775E0,-5.347479858E0,-5.021158447E0,8.552449500E0,4.725622833E-1,1.222457513E-1,2.193987817E-1
8.557477500E0,-8.547076263E0,-1.374007736E1,-4.723577271E0,8.562505500E0,9.799429178E-1,7.713384628E-1,8.428651690E-1
8.567533500E0,-1.042043060E1,-2.225062958E1,-2.514920197E0,8.572561500E0,1.359415650E0,1.738284111E0,1.286630869E0
8.577589500E0,-1.221504868E1,-2.612636993E1,1.594184875E0,8.582617500E0,1.009952307E0,1.626362562E0,1.226952434E0
8.587645500E0,-1.360236374E1,-2.493888931E1,4.381388855E-1,8.592673500E0,-2.531873286E-1,4.802516103E-2,3.235946000E-1
8.597701500E0,-9.417665863E0,-1.501617371E1,-3.271446991E0,8.602728500E0,-6.048436165E-1,6.036861539E-1,-4.705157876E-1
8.607756500E0,1.246907043E0,-6.957681427E0,5.648503876E0,8.612784500E0,-9.623437189E-3,2.078003645E0,-8.646447062E-1
8.617812500E0,5.125192108E0,-4.524940338E0,9.662257233E0,8.622840500E0,3.565097451E-1,2.152942181E0,-7.874101400E-1
8.627868500E0,3.607797546E0,-1.534309387E0,4.673880615E0,8.632896500E0,3.242777884E-1,1.418652058E0,-2.116051465E-1
8.637924500E0,1.060245209E0,3.794609070E-1,2.341131592E0,8.642952500E0,3.227604628E-1,1.190853119E0,2.936484814E-1
8.647980500E0,-7.517367554E-1,-5.894741821E-1,3.056344299E0,8.653008500E0,4.621114135E-1,1.469052434E0,6.482287049E-1
8.658036500E0,-1.503024445E0,-4.248165894E0,3.730991364E0,8.663064500E0,8.742639422E-1,2.149394989E0,9.023118019E-1
8.668092500E0,-1.858086090E0,-7.727829895E0,4.090843048E0,8.673120500E0,1.527871609E0,3.153383255E0,1.101007581E0
8.678148500E0,-2.296374664E0,-1.081605789E1,5.440436554E0,8.683176500E0,2.179498911E0,4.394476891E0,1.239293814E0
8.688204500E0,-3.151845703E0,-1.278251862E1,6.736740875E0,8.693232500E0,2.585949421E0,5.326106548E0,1.410650611E0
8.698260500E0,-3.832480316E0,-1.279569122E1,5.314099274E0,8.703288500E0,2.693693638E0,5.381606102E0,1.595838070E0
8.708316500E0,-4.276457062E0,-1.199800003E1,2.184407501E0,8.713343500E0,2.679898739E0,4.866730690E0,1.700552464E0
8.718371500E0,-4.193080444E0,-1.096484848E1,6.053411865E-1,8.723399500E0,2.610803843E0,4.244509220E0,1.722738743E0
8.728427500E0,-3.690874786E0,-1.026355682E1,3.944297791E-1,8.733455500E0,2.280108690E0,3.142286539E0,1.590857148E0
8.738483500E0,-2.979703674E0,-1.104597977E1,-4.212240601E-1,8.743511500E0,1.828343272E0,1.831573009E0,1.178956509E0
8.748539500E0,-2.596201172E0,-1.196147598E1,-5.598358154E-2,8.753567500E0,1.598958850E0,8.472556472E-1,5.047620535E-1
8.758595500E0,-1.556163940E0,-1.043360321E1,1.055305481E0,8.763623500E0,1.565808535E0,6.443624943E-2,-1.105450913E-1
8.768651500E0,-4.770579529E-1,-8.528814240E0,8.593629456E-1,8.773679500E0,1.542664886E0,-7.414341569E-1,-6.792767644E-1
8.778707500E0,9.669891357E-2,-7.971972198E0,-3.112028503E-1,8.783735500E0,1.939094186E0,-1.749444842E0,-1.010523915E0
8.788763500E0,1.297651520E0,-7.867489471E0,-4.755610657E0,8.793791500E0,2.570803404E0,-2.426547050E0,-1.036512613E0
8.798819500E0,2.737507324E0,-8.168513489E0,-6.819967804E0,8.803847500E0,2.570371151E0,-2.149276018E0,-7.134134769E-1
8.808875500E0,3.068768463E0,-9.044491882E0,-3.781735840E0,8.813903500E0,2.094053984E0,-1.434997797E0,-2.024780661E-1
8.818931500E0,2.841391296E0,-8.785380707E0,-1.469643860E0,8.823958500E0,1.353419781E0,-6.641964316E-1,9.979185462E-2
8.828986500E0,1.716031494E0,-7.941585388E0,1.101559296E0,8.834014500E0,6.157479882E-1,1.420617253E-1,4.505697638E-2
8.839042500E0,1.078806610E0,-7.989785156E0,2.663561096E0,8.844070500E0,3.258802593E-1,6.695633531E-1,-6.334280223E-2
8.849098500E0,6.457571411E-1,-9.051527252E0,1.470691681E0,8.854126500E0,4.223402143E-1,9.143416286E-1,-1.837570965E-1
8.859154500E0,-1.288819885E-1,-9.987680511E0,1.389111328E-1,8.864182500E0,7.474163175E-1,9.742785096E-1,-2.739903033E-1
8.869210500E0,-2.891986084E-1,-1.040186920E1,-8.653504944E-1,8.874238500E0,1.126789689E0,9.716547728E-1,-3.026890755E-1
8.879266500E0,-4.719685364E-1,-1.038360718E1,-1.529818726E0,8.884294500E0,1.325005889E0,9.978349209E-1,-2.427854389E-1
8.889322500E0,-4.843927002E-1,-9.962532806E0,-1.623074799E0,8.894350500E0,1.311970234E0,9.886896014E-1,-1.396190971E-1
8.899378500E0,-5.182223511E-1,-9.417216797E0,-1.535656586E0,8.904406500E0,1.155559063E0,8.583960533E-1,-6.548228860E-2
8.909434500E0,-5.144801331E-1,-8.965755615E0,-1.536704407E0,8.914462500E0,1.021408796E0,5.707775950E-1,-1.256208215E-2
8.919490500E0,-4.346960449E-1,-8.365354156E0,-1.244811401E0,8.924518500E0,1.012446880E0,2.794615030E-1,3.290528804E-2
8.929546500E0,-4.932243347E-1,-8.208779755E0,-4.312532043E-1,8.934573500E0,1.122132897E0,4.798940569E-2,1.316736788E-1
8.939601500E0,-6.770420837E-1,-8.415948944E0,7.125183105E-2,8.944629500E0,1.238120437E0,-1.459305286E-1,2.633803189E-1
8.949657500E0,-9.544152832E-1,-8.530311127E0,-3.861968994E-2,8.954685500E0,1.250837922E0,-2.012270689E-1,3.160783947E-1
8.959713500E0,-1.480720825E0,-8.538693695E0,-2.806663513E-1,8.964741500E0,1.216815114E0,-8.992467821E-2,3.295875490E-1
8.969769500E0,-1.738484802E0,-8.536298676E0,-6.725514221E-1,8.974797500E0,1.172321081E0,7.684459537E-2,3.479255438E-1
8.979825500E0,-1.598376160E0,-8.737180939E0,-1.242117004E0,8.984853500E0,1.121440053E0,2.508907914E-1,3.577500880E-1
8.989881500E0,-1.173559570E0,-8.930878143E0,-1.476828918E0,8.994909500E0,1.067842126E0,3.864984214E-1,3.292396367E-1
8.999937500E0,-7.441026306E-1,-9.123677216E0,-1.418600006E0,9.004965500E0,9.831634164E-1,4.719659984E-1,2.867266536E-1
9.009993500E0,-4.791535950E-1,-9.581425323E0,-1.136736145E0,9.015021500E0,8.418582082E-1,5.003747344E-1,2.699343562E-1
9.020049500E0,-2.495310974E-1,-9.975855103E0,-8.773255920E-1,9.025077500E0,6.968274117E-1,4.452498555E-1,2.454858571E-1
9.030105500E0,4.490661621E-2,-9.937983856E0,-7.854167175E-1,9.035133500E0,5.924187303E-1,3.232834637E-1,1.912210286E-1
9.040160500E0,2.198927307E-1,-9.924811249E0,-8.412506104E-1,9.045188500E0,5.439276695E-1,2.067168057E-1,1.154885590E-1
9.050216500E0,2.532733154E-1,-1.011790970E1,-8.830137634E-1,9.055244500E0,5.140414238E-1,1.663885564E-1,6.935675442E-2
9.060272500E0,2.019300842E-1,-1.051473450E1,-8.809181213E-1,9.065300500E0,4.087540805E-1,1.412233859E-1,4.149177670E-2
9.070328500E0,2.894979858E-1,-1.084045715E1,-8.312214661E-1,9.075356500E0,1.801728308E-1,1.061053425E-1,-1.841789484E-2
9.080384500E0,6.297404480E-1,-1.132694550E1,-4.200265503E-1,9.085412500E0,-5.896833539E-2,4.497370869E-2,-9.167740494E-2
9.090440500E0,1.008003845E0,-1.202359680E1,-7.364685059E-2,9.095468500E0,-2.097921968E-1,-5.936734378E-2,-1.261730641E-1
9.100496500E0,1.363215179E0,-1.284688477E1,-2.712359619E-1,9.105524500E0,-2.008719593E-1,-1.534970999E-1,-1.066142544E-1
9.110552500E0,1.672472076E0,-1.343635895E1,-1.002016296E0,9.115580500E0,-1.757830009E-2,-1.460754126E-1,-7.024453580E-2
9.120608500E0,2.039658508E0,-1.349099533E1,-1.904639282E0,9.125636500E0,2.108534724E-1,5.144594703E-3,-4.490737617E-2
9.130664500E0,2.338437195E0,-1.332169739E1,-2.441423035E0,9.135692500E0,2.549389005E-1,2.391054183E-1,-2.604979649E-2
9.140720500E0,2.434687042E0,-1.334295319E1,-2.477198639E0,9.145748500E0,8.179065771E-3,4.444071949E-1,-1.379845440E-1
9.150775500E0,2.703527985E0,-1.318473221E1,-2.264041901E0,9.155803500E0,-4.628598392E-1,5.008973479E-1,-4.463905692E-1
9.160831500E0,3.456013184E0,-1.320059921E1,-2.034419403E0,9.165859500E0,-9.835977554E-1,2.387232929E-1,-8.218191266E-1
9.170887500E0,3.928879852E0,-1.386162460E1,-2.095941467E0,9.175915500E0,-1.353256822E0,-1.750107557E-1,-1.011249542E0
9.180943500E0,3.712579651E0,-1.442116104E1,-2.183060303E0,9.185971500E0,-1.623904347E0,-4.923380911E-1,-1.051864743E0
9.190999500E0,3.218457184E0,-1.420037018E1,-1.704804840E0,9.196027500E0,-1.872306228E0,-5.788818002E-1,-9.205245972E-1
9.201055500E0,2.032922516E0,-1.359353210E1,-9.120533752E-1,9.206083500E0,-2.012084007E0,-4.955040216E-1,-5.731748343E-1
9.211111500E0,-7.952961731E-1,-1.169967041E1,-2.433938599E-1,9.216139500E0,-2.196090937E0,-1.751427799E-1,-3.307549655E-1
9.221167500E0,-3.606001282E0,-9.487720184E0,-5.777984619E-2,9.226195500E0,-2.245982885E0,-3.352920115E-1,-1.242906004E-1
9.231223500E0,-4.885390778E0,-8.154442749E0,-1.331481171E0,9.236251500E0,-2.401001692E0,-7.291754484E-1,1.732139103E-2
9.241279500E0,-5.780978394E0,-8.412057037E0,-1.222657471E0,9.246307500E0,-2.799341440E0,-7.865259647E-1,1.406092048E-1
9.251334500E0,-6.701564026E0,-1.045800247E1,3.637435913E-1,9.256362500E0,-3.091745615E0,-5.200421214E-1,6.292667240E-2
9.261390500E0,-6.381828918E0,-1.221804245E1,2.225871277E0,9.266418500E0,-3.154525042E0,3.915658221E-3,-1.609583646E-1
9.271446500E0,-6.084397430E0,-1.377630203E1,4.299359436E0,9.276474500E0,-2.990825653E0,7.668482065E-1,-3.382428586E-1
9.281502500E0,-6.564748535E0,-1.558439209E1,6.146218872E0,9.286530500E0,-2.591569185E0,1.632844448E0,-3.059763610E-1
9.291558500E0,-7.148983612E0,-1.697769470E1,6.816824341E0,9.296586500E0,-2.046479225E0,2.480200529E0,-2.803077176E-2
9.301614500E0,-7.701784058E0,-1.702903793E1,6.296206970E0,9.306642500E0,-1.617403984E0,2.917141676E0,2.376978397E-1
9.311670500E0,-7.509434052E0,-1.488295074E1,2.745291138E0,9.316698500E0,-1.475704193E0,2.588075638E0,2.621997297E-1
9.321726500E0,-6.637646942E0,-1.244467117E1,-3.487148438E0,9.326754500E0,-1.624624968E0,1.518657327E0,1.778843850E-1
9.331782500E0,-5.496120758E0,-1.135643417E1,-8.877139893E0,9.336810500E0,-1.803313017E0,7.894113064E-1,7.823972031E-3
9.341838500E0,-4.704267426E0,-1.038196060E1,-7.143744507E0,9.346866500E0,-1.709774852E0,1.007767677E0,-4.300664663E-1
9.351894500E0,-3.816912689E0,-9.031468964E0,-3.096311188E0,9.356922500E0,-1.485345721E0,1.396353722E0,-7.684469223E-1
9.361949500E0,-2.070494385E0,-8.837173004E0,-2.088307343E0,9.366977500E0,-1.124826312E0,1.463661551E0,-9.026118517E-1
9.372005500E0,-1.230441284E0,-8.298592987E0,-2.231409760E0,9.377033500E0,-8.373420238E-1,7.478087544E-1,-1.058300257E0
9.382061500E0,-9.601034546E-1,-7.760911102E0,-3.023113403E0,9.387089500E0,-8.229728937E-1,-2.787191272E-1,-1.074007273E0
9.392117500E0,-1.177152100E0,-7.489076385E0,-1.779948578E0,9.397145500E0,-8.557258248E-1,-1.182358146E0,-1.158511281E0
9.402173500E0,-5.414241028E-1,-6.813531189E0,-1.222956848E-1,9.407201500E0,-1.151365161E0,-1.924564242E0,-1.187608600E0
9.412229500E0,-1.296304321E-1,-6.801855469E0,1.413959656E0,9.417257500E0,-1.654963613E0,-2.213650942E0,-8.922368288E-1
9.422285500E0,1.766326904E-1,-6.178252258E0,4.133204956E0,9.427313500E0,-1.961264968E0,-2.018933773E0,-5.685310364E-1
9.432341500E0,3.294648743E-1,-5.346132660E0,4.728217621E0,9.437369500E0,-2.277499676E0,-2.028077126E0,-3.772598803E-1
9.442397500E0,3.637435913E-1,-4.524640961E0,3.501967621E0,9.447425500E0,-2.446676016E0,-2.206473112E0,-3.136012554E-1
9.452453500E0,3.397933960E-2,-4.602778473E0,2.265688477E0,9.457481500E0,-2.520773172E0,-2.284925699E0,-3.005472422E-1
9.462509500E0,-5.951623535E-1,-4.984185333E0,1.139280853E0,9.467536500E0,-2.398560047E0,-2.406006575E0,-3.959715366E-1
9.472564500E0,-1.008602600E0,-5.235662384E0,-1.093775482E0,9.477592250E0,-1.995440364E0,-2.747582674E0,-5.302560925E-1
9.482620250E0,-1.109941864E0,-5.026098175E0,-2.986589355E0,9.487648250E0,-1.432998538E0,-3.041515589E0,-5.740526915E-1
9.492676250E0,-8.779243469E-1,-4.718038788E0,-3.160078583E0,9.497704250E0,-8.043940067E-1,-3.048866749E0,-5.945428014E-1
9.502732250E0,-8.431965637E-1,-4.321962433E0,-2.598745880E0,9.507760250E0,-1.903991401E-1,-2.898009539E0,-5.969336629E-1
9.512788250E0,-9.931846619E-1,-3.995491333E0,-2.078128510E0,9.517816250E0,3.518047333E-1,-2.708878517E0,-5.388703346E-1
9.522844250E0,-1.245110779E0,-3.596870270E0,-1.500928802E0,9.527872250E0,7.517620921E-1,-2.494886637E0,-4.558601975E-1
9.532900250E0,-1.513802032E0,-3.094365234E0,-1.093326416E0,9.537928250E0,1.000453711E0,-2.361459494E0,-3.643872738E-1
9.542956250E0,-1.618584137E0,-2.859952698E0,-1.262474670E0,9.547984250E0,1.153948307E0,-2.357186317E0,-2.745092213E-1
9.553012250E0,-1.528621216E0,-2.857557678E0,-1.731449432E0,9.558040250E0,1.296733975E0,-2.330546856E0,-1.724132001E-1
9.563068250E0,-1.475781097E0,-3.230282593E0,-1.975741425E0,9.568096250E0,1.446542501E0,-2.285249710E0,-9.037593752E-2
9.573124250E0,-1.535357208E0,-3.967649231E0,-2.305655365E0,9.578151250E0,1.629048109E0,-2.018898249E0,5.179158598E-2
9.583179250E0,-1.811233521E0,-5.064717865E0,-2.173330536E0,9.588207250E0,1.811345220E0,-1.561054587E0,1.821769476E-1
9.593235250E0,-2.040257263E0,-5.852529602E0,-2.250420227E0,9.598263250E0,2.002820015E0,-1.076402664E0,2.294366062E-1
9.603291250E0,-2.202669525E0,-6.781497803E0,-2.809357910E0,9.608319250E0,2.087364435E0,-5.086184144E-1,2.900462449E-1
9.613347250E0,-2.555485840E0,-8.595126343E0,-3.071911926E0,9.618375250E0,2.068449736E0,2.472223341E-2,2.892422378E-1
9.623403250E0,-2.795137482E0,-1.009695328E1,-4.006568298E0,9.628431250E0,1.854119420E0,3.390298784E-1,2.470756322E-1
9.633459250E0,-3.639830933E0,-1.219499039E1,-6.293811951E0,9.638487250E0,1.278224111E0,2.219975293E-1,2.522778511E-1
9.643515250E0,-4.751119995E0,-1.524385025E1,-9.364676056E0,9.648543250E0,4.107458591E-1,-5.844284892E-1,2.047222257E-1
9.653571250E0,-5.087171173E0,-1.879296982E1,-1.193872330E1,9.658599250E0,-5.421605706E-1,-1.726360917E0,4.739411920E-2
9.663627250E0,-4.627776489E0,-2.116194351E1,-1.266336639E1,9.668655250E0,-1.414319873E0,-2.315709829E0,-1.361912787E-1
9.673683250E0,-3.253783722E0,-2.021291702E1,-1.084315155E1,9.678711250E0,-1.945205331E0,-2.003122568E0,-3.188875914E-1
9.683739250E0,-2.545456696E0,-1.575264221E1,-8.912017365E0,9.688766250E0,-2.036411762E0,-1.774656892E0,-4.894489944E-1
9.693794250E0,-2.086062012E0,-1.184816162E1,-9.842781830E0,9.698822250E0,-1.898463964E0,-1.876464963E0,-6.034660935E-1
9.703850250E0,-1.684147797E0,-9.414073334E0,-1.021505768E1,9.708878250E0,-1.601987243E0,-1.897423029E0,-6.215432882E-1
9.713906250E0,-1.331032104E0,-7.771838379E0,-9.000333710E0,9.718934250E0,-1.183686376E0,-1.652194858E0,-5.524345040E-1
9.723962250E0,-1.259480896E0,-6.410718842E0,-7.610623627E0,9.728990250E0,-7.172210813E-1,-1.141604424E0,-4.192670882E-1
9.734018250E0,-1.730401611E0,-4.940775604E0,-6.132746887E0,9.739046250E0,-2.375258654E-1,-5.862239003E-1,-3.024073243E-1
9.744074250E0,-3.251987457E0,-3.385958862E0,-5.010829926E0,9.749102250E0,1.380901039E-1,6.391363591E-2,-1.884022951E-1
9.754130250E0,-6.626420288E0,-5.680986328E0,-4.035009155E0,9.759158250E0,3.713316023E-1,4.839907885E-1,3.083744645E-1
9.764186250E0,-9.683213654E0,-1.520822433E1,-3.892954559E0,9.769214250E0,7.913581133E-1,7.774749398E-1,9.671637416E-1
9.774242250E0,-1.159099640E1,-2.222518250E1,-1.768721924E0,9.779270250E0,9.503759742E-1,7.486305237E-1,1.210705638E0
9.784298250E0,-1.412851959E1,-2.224359421E1,1.010997620E0,9.789326250E0,1.687793285E-1,1.834769249E-1,9.791096449E-1
9.794353250E0,-1.509880188E1,-1.822250610E1,1.165775757E0,9.799381250E0,-5.692124367E-1,3.982534111E-1,1.806127280E-1
9.804409250E0,-7.649093628E0,-8.451874237E0,5.075046387E0,9.809437250E0,-7.073760033E-2,8.973178864E-1,-3.412095308E-1
9.814465250E0,-6.318360901E-1,-3.932173004E0,6.333329773E0,9.819493250E0,5.143660307E-1,6.577742696E-1,-4.399771094E-1
9.824521250E0,1.127156067E0,-2.863694916E0,4.036056976E0,9.829549250E0,7.093601227E-1,5.341783762E-1,-2.969491780E-1
9.834577250E0,2.212548981E0,-9.770182800E-1,4.127516785E0,9.839605250E0,7.192987204E-1,1.173473954E0,4.278602079E-2
9.844633250E0,2.526296539E0,-7.060816956E-1,5.704487457E0,9.849661250E0,6.822429895E-1,2.231506109E0,3.022233546E-1
9.854689250E0,1.547931061E0,-3.019071808E0,6.770570526E0,9.859717250E0,8.446363807E-1,3.307418823E0,4.597698450E-1
9.864745250E0,-2.469863892E-2,-7.262447662E0,7.498207397E0,9.869773250E0,1.271986604E0,4.363938808E0,6.736233234E-1
9.874801250E0,-1.803150330E0,-1.121827148E1,7.473658447E0,9.879829250E0,1.771593928E0,5.227316856E0,9.516592026E-1
9.884857250E0,-3.384012909E0,-1.293475204E1,6.449188843E0,9.889885250E0,2.200740337E0,5.674510956E0,1.192771673E0
9.894913250E0,-4.221371613E0,-1.280841476E1,4.407285004E0,9.899941250E0,2.602649212E0,5.344672203E0,1.383887053E0
9.904968250E0,-4.524790649E0,-1.260019775E1,1.371448059E0,9.909996250E0,2.840404034E0,4.410155773E0,1.530391574E0
9.915024250E0,-4.565655670E0,-1.186821991E1,-4.917274475E-1,9.920052250E0,2.951842546E0,3.133892536E0,1.561676025E0
9.925080250E0,-3.528761902E0,-1.161599442E1,-1.059347076E0,9.930108250E0,2.571699619E0,1.659143090E0,1.249237895E0
9.935136250E0,-2.848875732E0,-1.255065079E1,-6.065386963E-1,9.940164250E0,1.764957547E0,1.857545376E-1,6.748694181E-1
9.945192250E0,-1.519041138E0,-1.171748337E1,4.605921936E-1,9.950220250E0,1.318971395E0,-7.051600218E-1,1.603957564E-1
9.955248250E0,-4.203259277E-1,-1.009904892E1,2.235900421E0,9.960276250E0,1.166713119E0,-1.103235841E0,-4.078972638E-1
9.965304250E0,2.758763123E-1,-7.979157257E0,1.538949738E0,9.970332250E0,1.451049447E0,-1.394752622E0,-8.374083638E-1
9.975360250E0,1.341660004E0,-7.330256653E0,-2.837649078E0,9.980388250E0,1.943049312E0,-1.223164082E0,-9.379690289E-1
9.985416250E0,2.589914246E0,-7.879464569E0,-4.763095093E0,9.990444250E0,2.058878660E0,-5.858868361E-1,-7.592304945E-1
9.995472250E0,3.147654419E0,-8.680598602E0,-3.170107727E0,1.000050025E1,1.715361357E0,7.398854196E-2,-3.127909601E-1
1.000552825E1,2.739752655E0,-9.157506866E0,-1.248254242E0,1.001055625E1,1.152344942E0,2.974320054E-1,4.222651944E-2
1.001558425E1,1.222358093E0,-7.906109161E0,-1.975891113E-2,1.002061125E1,6.975555420E-1,3.038273454E-1,3.179891407E-2
1.002563925E1,-2.230361938E-1,-7.270381165E0,1.272653503E0,1.003066725E1,4.908821583E-1,2.696167827E-1,1.340260264E-2
1.003569525E1,-9.729766846E-1,-8.530460815E0,1.482966156E0,1.004072325E1,5.135735869E-1,1.452865750E-1,1.347291004E-2
1.004575125E1,-1.582658844E0,-9.618398438E0,8.003855896E-1,1.005077925E1,7.346518636E-1,9.938003123E-2,-4.012668505E-2
1.005580725E1,-2.122735748E0,-1.000848724E1,2.724334717E-1,1.006083525E1,1.023048162E0,4.046798125E-2,-1.377693564E-1
1.006586325E1,-2.251767426E0,-1.040950333E1,-3.784130859E-1,1.007089125E1,1.200365305E0,8.167784661E-2,-1.754895747E-1
1.007591925E1,-2.007325745E0,-1.047342041E1,-2.019300842E-1,1.008094725E1,1.196590781E0,2.882062495E-1,-1.492867321E-1
1.008597525E1,-1.791773987E0,-9.856104126E0,6.466552734E-2,1.009100325E1,1.109372139E0,6.437351108E-1,-8.489190042E-2
1.009603125E1,-1.521585846E0,-9.444609833E0,4.260140991E-1,1.010105925E1,1.038283587E0,9.974495173E-1,1.156912372E-2
1.010608725E1,-1.271455994E0,-9.565258942E0,5.049000549E-1,1.011111525E1,1.029777884E0,1.103500843E0,7.908742875E-2
1.011614325E1,-1.213526459E0,-9.232800293E0,-4.685256958E-2,1.012117125E1,1.164169788E0,1.118761539E0,1.011320129E-1
1.012619925E1,-1.298399963E0,-8.796008606E0,-7.873626709E-2,1.013122625E1,1.303499937E0,1.094540119E0,1.533052474E-1
1.013625425E1,-1.551822968E0,-8.760981445E0,-4.676275635E-1,1.014128225E1,1.364057064E0,9.231976867E-1,2.685370147E-1
1.014631025E1,-1.828447723E0,-8.592881012E0,-1.218166809E0,1.015133825E1,1.312085986E0,6.619409919E-1,3.587911427E-1
1.015636625E1,-2.112407227E0,-8.325536957E0,-1.537153473E0,1.016139425E1,1.177581668E0,4.460411370E-1,4.039418399E-1
1.016642225E1,-2.124981079E0,-8.221203918E0,-1.286873932E0,1.017145025E1,1.016635060E0,3.110105395E-1,4.578213096E-1
