"time_acc","acc_x","acc_y","acc_z","time_gyro","gyro_x","gyro_y","gyro_z"
1.707608334E-2,7.652087402E-1,-5.458548889E0,-7.915539551E-1,1.330608334E-2,8.472480178E-1,3.252233267E-1,-2.913967147E-2
2.713208333E-2,-7.939489746E-1,1.488354950E0,1.131646729E0,2.336108333E-2,2.651368082E-1,1.205909997E-1,-3.240218759E-1
3.718808333E-2,8.472381592E-2,3.941753082E0,3.090173950E0,3.341708333E-2,1.322930008E-1,7.945185304E-1,-4.532517493E-1
4.724308334E-2,-1.451980591E-1,7.781418457E0,1.069974976E0,4.347208334E-2,2.557205558E-1,1.145569563E0,-7.586180568E-1
5.729875000E-2,2.694396973E-1,8.805588684E0,1.893562317E-1,5.352775000E-2,6.262637377E-1,1.392699361E0,-8.705952168E-1
6.735375000E-2,3.848497009E-1,7.095395050E0,1.182540894E-1,6.358275000E-2,1.060215712E0,1.513496399E0,-9.604319930E-1
7.740975000E-2,-2.525248718E-1,3.769161987E0,1.286724243E0,7.363875000E-2,1.494524837E0,1.597336411E0,-1.065071344E0
8.746475000E-2,-1.775308228E-1,-2.998265076E-1,3.999383240E0,8.369375000E-2,1.701521039E0,2.167963266E0,-1.150723577E0
9.752075000E-2,2.167492676E0,-6.308631134E0,3.517086182E0,9.374975000E-2,1.522954226E0,2.565215588E0,-4.453037083E-1
1.075757500E-1,3.422482910E0,-1.090766739E1,5.309458923E-1,1.038047500E-1,1.013517618E0,2.198832750E0,8.871226311E-1
1.176317500E-1,2.615660706E0,-1.347767303E1,-1.439107361E0,1.138607500E-1,1.675958633E-1,1.272923827E0,2.410781860E0
1.276867500E-1,-5.028044128E-1,-1.028960266E1,-4.717290344E0,1.239157500E-1,-2.467468530E-1,-9.800899029E-1,3.162887335E0
1.377427500E-1,-2.544708252E0,-9.095984802E0,2.656974792E-1,1.339717500E-1,-4.512363374E-1,-2.850503922E0,3.203928947E0
1.477977500E-1,-1.128802643E0,-8.291407928E0,4.490661621E-3,1.440267500E-1,1.214005500E-1,-3.597548246E0,3.180585861E0
1.578537500E-1,-3.847000122E-2,-6.125561829E0,-6.765930176E-1,1.540827500E-1,1.007696033E0,-3.796681881E0,3.153050423E0
1.679087500E-1,4.887336731E-1,-5.234315186E0,1.574126587E0,1.641377500E-1,1.770450354E0,-3.540640116E0,3.148739815E0
1.779647500E-1,9.502239990E-1,-4.817881165E0,2.985541534E0,1.741937500E-1,2.246959448E0,-2.437157154E0,3.177852631E0
1.880197500E-1,9.038204956E-1,-4.035757599E0,3.528013458E0,1.842497500E-1,2.349431038E0,-1.151201725E0,3.230507374E0
1.980757500E-1,9.403445435E-1,-3.668271790E0,4.153562622E0,1.943047500E-1,2.238782644E0,-1.181636825E-1,3.333935261E0
2.081307500E-1,2.516866150E0,-2.651376434E1,3.765719147E0,2.043607500E-1,1.966093302E0,-1.496612653E-2,3.250191212E0
2.181867500E-1,3.474275208E-1,-7.356571930E1,9.833351440E0,2.144157500E-1,9.031204879E-2,6.353667378E-2,2.294008493E0
2.282417500E-1,-2.561024323E0,-5.151133163E1,1.404828644E0,2.244717500E-1,-3.783380985E-1,-2.171272039E-1,8.847295642E-1
2.382977500E-1,4.188290405E-1,-2.750410492E1,-5.878874817E0,2.345267500E-1,1.060016274E0,-3.553332686E-1,-3.095280379E-2
2.483527500E-1,1.206341400E0,-1.429961380E1,-2.129322052E0,2.445827500E-1,1.860193491E0,2.873633243E-2,-5.628155470E-1
2.584087500E-1,1.056802368E0,-4.106560364E0,-8.608598328E-1,2.546377500E-1,2.073428869E0,7.982242703E-1,-8.971900344E-1
2.684637500E-1,4.653822327E-1,-1.302441559E0,-3.860472107E-1,2.646937500E-1,1.747832894E0,1.563618064E0,-1.114506125E0
2.785197500E-1,4.093986511E-1,-7.417076111E-1,-6.914122009E-1,2.747487500E-1,1.053622723E0,1.968566298E0,-1.036774278E0
2.885747500E-1,-1.703457642E-1,-2.655627594E0,-8.524772644E-1,2.848047500E-1,3.255667984E-1,1.974988222E0,-4.511318207E-1
2.986307500E-1,-1.194066925E0,-5.128036194E0,-8.002359009E-1,2.948597500E-1,-1.243090034E-1,1.571831226E0,2.216985077E-1
3.086857500E-1,-1.350641327E0,-6.438411255E0,-7.548802185E-1,3.049157500E-1,-2.442591041E-1,8.307476640E-1,3.948196173E-1
3.187417500E-1,-1.248852997E0,-8.528065796E0,-8.756790161E-2,3.149707500E-1,-1.803253889E-1,1.857543290E-1,3.494449556E-1
3.287967500E-1,-7.198530579E-1,-1.035681290E1,5.602848816E-1,3.250267500E-1,2.939619683E-2,-1.298604608E-1,3.764125407E-1
3.388527500E-1,6.242019653E-2,-1.120958954E1,7.912545776E-1,3.350817500E-1,3.089711070E-1,-2.175338566E-1,4.377456903E-1
3.489077500E-1,6.378236389E-1,-1.127575195E1,9.831555176E-1,3.451377500E-1,4.621968567E-1,-1.410827935E-1,3.938395977E-1
3.589637500E-1,1.037492523E0,-1.168649780E1,9.801617432E-1,3.551927500E-1,4.762333035E-1,6.404159218E-2,3.598195910E-1
3.690187500E-1,1.276844788E0,-1.192689789E1,7.530839539E-1,3.652487500E-1,4.394320846E-1,3.063868880E-1,3.574313819E-1
3.790747500E-1,1.381327515E0,-1.182825302E1,2.987786865E-1,3.753037500E-1,3.875976205E-1,4.912800789E-1,3.624937832E-1
3.891307500E-1,1.865420837E0,-1.202449493E1,-3.844006348E-1,3.853597500E-1,2.617310286E-1,4.028140008E-1,3.414361477E-1
3.991857500E-1,2.459086304E0,-1.243045074E1,-5.812413025E-1,3.954147500E-1,1.436406076E-1,2.211571336E-1,3.455331624E-1
4.092417500E-1,3.223097534E0,-1.262280075E1,-6.044430542E-1,4.054707500E-1,6.524730474E-2,5.250788108E-2,3.341819942E-1
4.192967500E-1,3.939956818E0,-1.251532425E1,-5.185217285E-1,4.155257500E-1,2.268892713E-2,-4.412092268E-2,2.973829806E-1
4.293527500E-1,4.659959564E0,-1.228450424E1,-4.980143738E-1,4.255817500E-1,1.147324964E-2,-8.875892311E-2,2.427378148E-1
4.394077500E-1,5.178331604E0,-1.190384583E1,-4.237687683E-1,4.356367500E-1,5.929376930E-2,7.069864869E-2,1.796826720E-1
4.494637500E-1,5.438490601E0,-1.158276352E1,-4.944218445E-1,4.456927500E-1,1.055754051E-1,4.250145853E-1,8.528784662E-2
4.595187500E-1,5.367987213E0,-1.139340729E1,-1.048868866E0,4.557477500E-1,4.873849079E-2,7.579907179E-1,-5.317682028E-2
4.695747500E-1,5.351072388E0,-1.175520493E1,-2.003284149E0,4.658037500E-1,-1.878662854E-1,8.207136989E-1,-2.282077223E-1
4.796297500E-1,5.640121307E0,-1.291110123E1,-2.789898376E0,4.758587500E-1,-5.594502091E-1,5.846585631E-1,-4.280723631E-1
4.896857500E-1,5.818400574E0,-1.378902557E1,-3.440146179E0,4.859147500E-1,-9.336019754E-1,1.329199672E-1,-6.170598865E-1
4.997407500E-1,5.627846832E0,-1.374277176E1,-3.671415253E0,4.959697500E-1,-1.274045825E0,-3.781600893E-1,-7.403503656E-1
5.097967500E-1,4.932243347E0,-1.326032501E1,-3.490291901E0,5.060257500E-1,-1.720733166E0,-9.742977023E-1,-7.973710895E-1
5.198517500E-1,3.695964203E0,-1.189486450E1,-2.060914307E0,5.160807500E-1,-2.153733015E0,-1.431995988E0,-8.915892243E-1
5.299077500E-1,1.924547882E0,-1.077219910E1,1.245410156E-1,5.261367500E-1,-2.501685381E0,-1.510442019E0,-1.106109023E0
5.399627500E-1,2.703378296E-1,-1.075124268E1,1.165326691E0,5.361917500E-1,-2.798782825E0,-1.324783802E0,-1.104724526E0
5.500187500E-1,-1.717678070E0,-1.113878677E1,1.460363159E0,5.462477500E-1,-3.063203812E0,-9.897738695E-1,-7.490392327E-1
5.600737500E-1,-3.142115936E0,-1.194935120E1,1.548829193E0,5.563027500E-1,-3.221724033E0,-7.055287957E-1,-2.147635967E-1
5.701297500E-1,-3.713477783E0,-1.284269348E1,2.515369263E0,5.663587500E-1,-3.263901472E0,-4.170032144E-1,2.828129530E-1
5.801847500E-1,-4.059857483E0,-1.371253464E1,4.068539429E0,5.764147500E-1,-3.189695120E0,-1.333590783E-2,6.265908480E-1
5.902407500E-1,-4.515210571E0,-1.494731689E1,5.145699463E0,5.864697500E-1,-3.051775694E0,5.297409296E-1,8.627896309E-1
6.002957500E-1,-5.123545532E0,-1.627775024E1,5.968538361E0,5.965257500E-1,-2.933235884E0,1.236890912E0,9.980502725E-1
6.103517500E-1,-6.202352142E0,-1.767329819E1,5.913003845E0,6.065807500E-1,-2.785575628E0,2.058000803E0,1.215924501E0
6.204067500E-1,-7.375312958E0,-1.696407303E1,1.845961304E0,6.166367500E-1,-2.509525061E0,2.347716331E0,1.368417621E0
6.304627500E-1,-8.155640259E0,-1.455947342E1,-5.859115906E0,6.266917500E-1,-2.203106165E0,1.376433253E0,1.155700445E0
6.405177500E-1,-8.800199890E0,-1.187271057E1,-8.067772980E0,6.367477500E-1,-2.026508093E0,7.121565938E-2,5.086274147E-1
6.505737500E-1,-9.765692139E0,-9.447154541E0,-3.555107117E0,6.468027500E-1,-2.251712084E0,1.672229022E-1,-5.987491608E-1
6.606287500E-1,-6.884932709E0,-1.187345901E1,-1.948198700E0,6.568587500E-1,-2.294283628E0,8.004413843E-1,-6.355093122E-1
6.706847500E-1,-3.996988220E0,-1.187375839E1,-6.597979431E0,6.669137500E-1,-1.264927745E0,-1.298648953E0,-6.878031492E-1
6.807397500E-1,-8.578660583E-1,-9.459129639E0,-4.847519531E0,6.769697500E-1,-8.356153369E-1,-3.115274191E0,-1.287961841E0
6.907957500E-1,1.363364868E0,-9.152118073E0,5.345384216E-1,6.870247500E-1,-1.349179268E0,-2.655302286E0,-1.654398799E0
7.008507500E-1,3.054697723E0,-8.095315704E0,1.682351532E0,6.970807500E-1,-1.691763043E0,-1.717914224E0,-1.942595959E0
7.109067500E-1,3.754791870E0,-7.376809845E0,1.784888306E0,7.071357500E-1,-1.743708134E0,-1.045981407E0,-2.067415714E0
7.209617500E-1,4.015998688E0,-7.022197266E0,5.569917297E-1,7.171917500E-1,-1.696651936E0,-9.156460166E-1,-2.006587029E0
7.310177500E-1,3.745660858E0,-6.471941528E0,-8.078700256E-1,7.272467500E-1,-1.675017357E0,-1.401556134E0,-1.829710007E0
7.410727500E-1,3.211721191E0,-5.638774109E0,-1.210083618E0,7.373027500E-1,-1.772643685E0,-2.216351271E0,-1.435562372E0
7.511287500E-1,2.981350250E0,-4.793631592E0,-2.707868958E-1,7.473577500E-1,-1.897818446E0,-2.842469215E0,-9.578897953E-1
7.611847500E-1,2.880909119E0,-4.197271729E0,5.207670593E-1,7.574137500E-1,-1.925982952E0,-3.134525061E0,-5.473265052E-1
7.712397500E-1,2.318827972E0,-3.552562408E0,1.179996185E0,7.674687500E-1,-1.813825130E0,-3.189213037E0,-2.895659208E-1
7.812957500E-1,1.368454285E0,-2.889740753E0,1.885628815E0,7.775247500E-1,-1.630596757E0,-2.848434448E0,-1.390703917E-1
7.913507500E-1,3.532653809E-1,-2.509531403E0,1.455722809E0,7.875797500E-1,-1.373600721E0,-2.471350193E0,-1.039077342E-1
8.014067500E-1,-5.363346863E-1,-2.655777283E0,4.959187317E-1,7.976357500E-1,-1.023681879E0,-2.231266975E0,-1.126825884E-1
8.114617500E-1,-1.458716583E0,-2.776725769E0,1.392105103E-1,8.076907500E-1,-6.441403031E-1,-2.040189266E0,-1.331259459E-1
8.215177500E-1,-2.250120850E0,-2.911445618E0,-2.561174011E-1,8.177467500E-1,-2.837879360E-1,-1.885873199E0,-1.715910584E-1
8.315727500E-1,-2.816393280E0,-3.102448425E0,-6.096821594E-1,8.278017500E-1,4.356964678E-2,-1.749078035E0,-2.302068621E-1
8.416287500E-1,-3.246898041E0,-3.211870880E0,-7.518864441E-1,8.378577500E-1,3.772557378E-1,-1.552543879E0,-3.191724122E-1
8.516837500E-1,-3.485801239E0,-3.527564392E0,-1.299148407E0,8.479127500E-1,7.802021503E-1,-1.347978950E0,-4.060430527E-1
8.617397500E-1,-3.506308594E0,-3.746558990E0,-1.845961304E0,8.579687500E-1,1.207708478E0,-1.160773873E0,-4.637255073E-1
8.717947500E-1,-3.160827026E0,-3.614533539E0,-2.165247345E0,8.680237500E-1,1.591560602E0,-9.849597812E-1,-5.011448264E-1
8.818507500E-1,-2.421065369E0,-3.406166840E0,-2.781366119E0,8.780797500E-1,1.907585144E0,-9.007977843E-1,-5.220625997E-1
8.919057500E-1,-1.652264099E0,-4.171225891E0,-3.363355865E0,8.881347500E-1,2.156538486E0,-8.924660683E-1,-4.877000451E-1
9.019617500E-1,-8.604107666E-1,-5.864804077E0,-4.220623169E0,8.981907500E-1,2.332160234E0,-1.004356503E0,-3.704285324E-1
9.120167500E-1,-3.179388428E-1,-7.204817505E0,-5.029541016E0,9.082457500E-1,2.403080702E0,-1.198968530E0,-2.494468540E-1
9.220727500E-1,-5.397775269E-1,-9.532626801E0,-3.884422302E0,9.183017500E-1,2.449730873E0,-1.005318165E0,-1.000254080E-1
9.321277500E-1,-8.393046570E-1,-1.166958298E1,-3.948938141E0,9.283567500E-1,2.299096346E0,-6.397607923E-1,4.053157941E-2
9.421837500E-1,-8.903485107E-1,-1.334879105E1,-5.311554565E0,9.384127500E-1,1.902271509E0,-5.294721127E-1,6.370161474E-2
9.522387500E-1,-9.705816650E-1,-1.557226730E1,-5.849685516E0,9.484687500E-1,1.340435624E0,-5.470311046E-1,3.404361010E-2
9.622947500E-1,-1.263223114E0,-1.717977448E1,-6.517147522E0,9.585237500E-1,6.378551722E-1,-5.929791331E-1,-2.199702151E-2
9.723497500E-1,-1.729353790E0,-1.742930557E1,-8.764424286E0,9.685797500E-1,-1.963844001E-1,-8.308830261E-1,-2.638710663E-2
9.824057500E-1,-2.041454773E0,-1.640768005E1,-1.131856293E1,9.786347500E-1,-1.004990458E0,-1.326466680E0,9.657210857E-2
9.924607500E-1,-1.992805939E0,-1.363679214E1,-1.229947311E1,9.886907500E-1,-1.433065176E0,-1.751298308E0,1.531961858E-1
1.002516750E0,-1.536105652E0,-1.179966248E1,-1.278865585E1,9.987457500E-1,-1.465541363E0,-2.017630339E0,1.383610517E-1
1.012571750E0,-7.791297913E-1,-1.093760513E1,-1.137260056E1,1.008801750E0,-1.218652368E0,-1.962397695E0,4.063678905E-2
1.022627750E0,7.768844604E-2,-9.910740509E0,-8.139174500E0,1.018856750E0,-9.242690802E-1,-1.532907009E0,-1.854421496E-1
1.032682750E0,5.125341797E-1,-9.271569672E0,-6.729555817E0,1.028912750E0,-7.275034189E-1,-1.285653591E0,-4.493097961E-1
1.042738750E0,2.908451843E-1,-9.183552704E0,-6.117778015E0,1.038967750E0,-6.665836573E-1,-1.239810467E0,-6.218844652E-1
1.052793750E0,-3.056643677E-1,-8.683592377E0,-5.651647339E0,1.049023958E0,-7.097906470E-1,-1.197181344E0,-6.830388904E-1
1.062849958E0,-6.770420837E-1,-7.805069275E0,-5.956712952E0,1.059078958E0,-6.754811406E-1,-1.176858187E0,-6.596933603E-1
1.072904958E0,-1.151854706E0,-6.558162231E0,-5.649851074E0,1.069134958E0,-5.249945521E-1,-9.443860650E-1,-5.222880244E-1
1.082960958E0,-1.799707489E0,-4.899760895E0,-5.250182190E0,1.079189958E0,-2.631903887E-1,-4.659425318E-1,-3.541155756E-1
1.093015958E0,-2.554438019E0,-3.817062378E0,-5.136568451E0,1.089245958E0,5.889654160E-2,3.316908702E-2,-1.913102865E-1
1.103071958E0,-3.771407318E0,-4.885989532E0,-4.992118835E0,1.099300958E0,4.447518289E-1,4.059804976E-1,-5.294681713E-2
1.113127958E0,-4.822222137E0,-8.721313934E0,-5.997278595E0,1.109356958E0,8.117592335E-1,3.505017757E-1,1.631226242E-1
1.123182958E0,-5.514233093E0,-1.271994873E1,-4.579576721E0,1.119411958E0,1.122244000E0,4.541884959E-1,3.920199871E-1
1.133238958E0,-6.805897064E0,-1.738409958E1,4.475692749E-2,1.129467958E0,1.325426817E0,1.335971475E0,6.886858940E-1
1.143293958E0,-8.107440491E0,-2.279759216E1,3.863765259E0,1.139522958E0,1.255193353E0,2.527224779E0,1.013373137E0
1.153349958E0,-8.747659149E0,-2.430959793E1,4.606520691E0,1.149578958E0,7.313609719E-1,2.982353210E0,9.860018492E-1
1.163404958E0,-6.467301178E0,-1.805859695E1,3.110381927E0,1.159633958E0,-4.225457832E-2,1.995878577E0,4.615961313E-1
1.173460958E0,-5.034031677E-1,-9.300309906E0,5.046006775E0,1.169689958E0,-4.938794971E-1,9.266257882E-1,-1.061204821E-2
1.183515958E0,2.102976837E0,-7.075037384E0,6.703060913E0,1.179744958E0,-4.212034345E-1,7.045705914E-1,-2.875962667E-2
1.193571958E0,1.049467621E0,-5.849984894E0,4.970264282E0,1.189800958E0,-3.877341449E-1,9.164527655E-1,2.995705605E-1
1.203626958E0,-1.727407837E-1,-3.616030426E0,3.890559540E0,1.199855958E0,-2.751137018E-1,1.250873804E0,4.257906973E-1
1.213682958E0,-7.556286621E-1,-3.372636566E0,2.834655304E0,1.209911958E0,-1.134137437E-2,1.545417786E0,3.836731911E-1
1.223737958E0,-6.553372192E-1,-4.216132507E0,7.147636414E-1,1.219966958E0,3.751280308E-1,1.592984319E0,3.555656672E-1
1.233793958E0,-2.995271301E-1,-5.141508179E0,4.936734009E-1,1.230022958E0,9.013293982E-1,1.720770836E0,3.881720901E-1
1.243848958E0,-5.135820007E-1,-7.123835907E0,1.908680878E0,1.240077958E0,1.448308349E0,2.153185606E0,5.022517443E-1
1.253904958E0,-1.203347626E0,-9.234895935E0,3.571872253E0,1.250133958E0,1.803730488E0,2.830936670E0,6.403361559E-1
1.263959958E0,-1.589843903E0,-1.050021469E1,4.497098236E0,1.260188958E0,1.927360296E0,3.456375599E0,8.589121699E-1
1.274015958E0,-1.463506622E0,-1.138173157E1,4.562212830E0,1.270244958E0,1.881392717E0,3.874559164E0,1.176772714E0
1.284070958E0,-1.345851288E0,-1.253268814E1,3.535946960E0,1.280300958E0,1.772402406E0,3.860589027E0,1.554116845E0
1.294126958E0,-1.146016846E0,-1.464075439E1,2.024839325E0,1.290355958E0,1.516496778E0,3.311736822E0,1.809836864E0
1.304181958E0,-4.568499756E-1,-1.643656998E1,9.160949707E-2,1.300411958E0,1.185067177E0,2.148437500E0,1.481351137E0
1.314237958E0,1.146465912E0,-1.333052902E1,-1.844464417E0,1.310466958E0,1.219165683E0,6.838736534E-1,7.881869674E-1
1.324292958E0,2.716700592E0,-9.025481415E0,-2.788251801E0,1.320522958E0,1.917346120E0,-4.529571235E-1,2.293327749E-1
1.334348958E0,2.853366394E0,-6.886579285E0,-1.641187134E0,1.330577958E0,2.557983637E0,-1.120484352E0,-1.565330327E-1
1.344403958E0,1.655706940E0,-5.940247192E0,-1.630110168E-1,1.340633958E0,2.826724529E0,-1.185283899E0,-4.745906293E-1
1.354459958E0,4.017645264E-1,-5.563181305E0,7.168592834E-1,1.350688958E0,2.729548454E0,-5.705726743E-1,-6.665277481E-1
1.364514958E0,-5.255570984E-1,-6.056854706E0,1.256337433E0,1.360744958E0,2.272369146E0,4.664420187E-1,-5.620895028E-1
1.374570958E0,-1.251996460E0,-6.702611847E0,7.527845764E-1,1.370799958E0,1.641325474E0,1.346021295E0,-3.042803407E-1
1.384625958E0,-1.719923401E0,-7.516319733E0,-9.235794067E-1,1.380855958E0,1.154063702E0,1.620521784E0,-1.128030568E-1
1.394681958E0,-1.950743408E0,-8.511001282E0,-2.246827698E0,1.390910958E0,9.677423239E-1,1.304232240E0,-1.068227552E-2
1.404736958E0,-2.005529480E0,-9.249715118E0,-2.195484467E0,1.400966958E0,9.677317142E-1,8.600079417E-1,-9.560933337E-3
1.414792958E0,-1.276246033E0,-9.931996307E0,-1.471889191E0,1.411021958E0,1.064372301E0,5.596566796E-1,-2.324858215E-3
1.424847958E0,-7.469467163E-2,-1.010279114E1,-5.201683044E-1,1.421077958E0,1.096180320E0,5.470319390E-1,-8.868777193E-3
1.434903958E0,8.897497559E-1,-1.040591080E1,-1.975891113E-1,1.431132958E0,1.038447142E0,7.556853890E-1,1.066427212E-2
1.444958958E0,1.598376160E0,-1.047072601E1,-7.032376099E-1,1.441188958E0,1.036701679E0,9.420845509E-1,3.107953258E-2
1.455014958E0,1.832489319E0,-1.014605118E1,-1.356479187E0,1.451243958E0,1.080214500E0,9.867860079E-1,4.498875886E-2
1.465069958E0,1.789378967E0,-9.665700073E0,-1.887874146E0,1.461299958E0,1.077165127E0,8.885672688E-1,1.389701068E-1
1.475125958E0,1.651515656E0,-9.322164459E0,-2.292033691E0,1.471354958E0,1.064028144E0,7.306557894E-1,1.845578849E-1
1.485180958E0,1.674268341E0,-8.661288757E0,-2.821482697E0,1.481410958E0,1.066924095E0,4.733150601E-1,2.610774040E-1
1.495236958E0,1.589095459E0,-8.274942169E0,-2.736010437E0,1.491465958E0,1.065790176E0,2.642126679E-1,3.065980673E-1
1.505292958E0,1.584604797E0,-8.263266449E0,-2.031575317E0,1.501521958E0,1.030467391E0,1.973707825E-1,3.733262420E-1
1.515347958E0,1.468296661E0,-8.277636566E0,-1.338366852E0,1.511576958E0,9.661613703E-1,2.454568148E-1,4.389891326E-1
1.525403958E0,1.160087585E0,-8.275690613E0,-9.208850098E-1,1.521632958E0,8.875504136E-1,2.925692201E-1,4.597090483E-1
1.535458958E0,7.520361328E-1,-8.429720306E0,-6.971003723E-1,1.531687958E0,8.225918412E-1,2.384437770E-1,4.385356605E-1
1.545514958E0,2.661465454E-1,-8.749006348E0,-4.073030090E-1,1.541743958E0,7.777556777E-1,1.254072338E-1,3.960329592E-1
1.555569958E0,-1.178050232E-1,-9.148226166E0,-1.074765015E-1,1.551798958E0,7.648541331E-1,2.971100062E-2,3.518352509E-1
1.565625958E0,-1.577719116E-1,-9.547146606E0,2.189945984E-1,1.561854958E0,7.717248201E-1,1.920349896E-2,3.130953014E-1
1.575680958E0,-1.092727661E-2,-9.690249023E0,4.306544495E-1,1.571909958E0,7.718484998E-1,6.800661236E-2,2.774349451E-1
1.585736958E0,1.472937012E-1,-9.689799957E0,6.870712280E-1,1.581965958E0,7.212750316E-1,1.439615637E-1,2.514137328E-1
1.595791958E0,3.772155762E-2,-9.567953339E0,8.690927124E-1,1.592020958E0,6.453874111E-1,1.893475801E-1,2.237717211E-1
1.605847958E0,-1.857637024E-1,-9.942175140E0,9.074130249E-1,1.602076958E0,6.036652923E-1,1.493098885E-1,1.401668340E-1
1.615902958E0,-2.206411743E-1,-1.099613342E1,8.699908447E-1,1.612131958E0,5.892158151E-1,7.310185581E-2,6.221865118E-2
1.625958958E0,-6.062393188E-2,-1.213047455E1,6.860234070E-1,1.622187958E0,5.974534750E-1,-6.067798473E-3,1.645223051E-2
1.636013958E0,3.763174438E-1,-1.313608337E1,4.207749939E-1,1.632242958E0,6.023772955E-1,-5.871108547E-2,9.285515174E-3
1.646069958E0,9.352551270E-1,-1.366882553E1,1.245410156E-1,1.642298958E0,5.800304413E-1,-8.346942812E-2,4.321552068E-2
1.656124958E0,1.480571136E0,-1.348695374E1,-2.526745605E-1,1.652353958E0,5.306225419E-1,-4.866810143E-2,9.536274523E-2
1.666180958E0,1.846110992E0,-1.281260605E1,-8.319699097E-1,1.662409958E0,4.913073182E-1,7.609886676E-2,1.034449041E-1
1.676235958E0,1.977537689E0,-1.222956848E1,-1.415456543E0,1.672465958E0,4.828362763E-1,3.264879882E-1,1.492928714E-2
1.686291958E0,2.080224152E0,-1.203182968E1,-1.791624298E0,1.682520958E0,4.484101236E-1,6.778862476E-1,-8.850096911E-2
1.696346958E0,2.133812714E0,-1.196536789E1,-2.164199524E0,1.692576958E0,3.599626422E-1,9.968723655E-1,-1.851119250E-1
1.706402958E0,2.313588867E0,-1.234318222E1,-2.427801361E0,1.702631958E0,1.931422204E-1,1.188207865E0,-2.343404591E-1
1.716457958E0,2.623594208E0,-1.319625824E1,-2.729424133E0,1.712687958E0,-1.013442203E-1,1.162082553E0,-2.280130684E-1
1.726513958E0,2.788251801E0,-1.378707962E1,-3.074306946E0,1.722742958E0,-4.690518975E-1,8.813605309E-1,-2.438631356E-1
1.736568958E0,3.020868073E0,-1.408481049E1,-3.191962280E0,1.732798958E0,-8.227524757E-1,4.103478789E-1,-3.156291842E-1
1.746624958E0,3.492387543E0,-1.409498932E1,-2.710563354E0,1.742853958E0,-1.149338484E0,-9.159166366E-2,-4.014756680E-1
1.756679958E0,3.538791046E0,-1.396520920E1,-1.607507172E0,1.752909958E0,-1.459170699E0,-4.603666663E-1,-4.840529859E-1
1.766735958E0,2.869981842E0,-1.326092377E1,-8.518785095E-1,1.762964958E0,-1.702426434E0,-7.642381787E-1,-5.310351253E-1
1.776790958E0,9.809101868E-1,-1.169098846E1,-7.768844604E-2,1.773020958E0,-1.868215084E0,-9.716382027E-1,-6.313687563E-1
1.786846958E0,-9.380992126E-1,-9.704768829E0,5.502557373E-1,1.783075958E0,-1.963909030E0,-1.106726170E0,-8.261870146E-1
1.796901958E0,-2.689457245E0,-8.626261597E0,7.918533325E-1,1.793131958E0,-2.032227516E0,-1.155492306E0,-8.820333481E-1
1.806957958E0,-4.084107056E0,-8.665480042E0,1.016087036E0,1.803186958E0,-2.366898537E0,-9.193508029E-1,-7.103276253E-1
1.817012958E0,-4.689448242E0,-8.865164795E0,1.688189392E0,1.813242958E0,-2.757181883E0,-6.378716230E-1,-4.117705226E-1
1.827068958E0,-5.042414246E0,-9.633966064E0,3.626508636E0,1.823297958E0,-3.049473524E0,-8.943989128E-2,-1.285912693E-1
1.837123958E0,-5.190456390E0,-1.101020416E1,4.591551819E0,1.833353958E0,-3.151212692E0,5.967772603E-1,-1.746983454E-2
1.847179958E0,-5.627098389E0,-1.289882675E1,4.325405273E0,1.843408958E0,-3.107522011E0,1.270000935E0,2.589095384E-2
1.857235958E0,-6.527925110E0,-1.519295609E1,3.184178467E0,1.853464958E0,-2.958610058E0,1.762066007E0,1.386251152E-1
1.867290958E0,-7.626191254E0,-1.701257217E1,4.574487305E-1,1.863519958E0,-2.709245682E0,1.835871339E0,3.294680119E-1
1.877346958E0,-8.833131409E0,-1.693742844E1,-2.677781525E0,1.873575958E0,-2.441796541E0,1.492368817E0,3.642616868E-1
1.887401958E0,-9.838440857E0,-1.403556290E1,-3.400778046E0,1.883630958E0,-2.344113588E0,1.284378052E0,-2.070747763E-1
1.897457958E0,-7.472460938E0,-1.302441559E1,-3.354973297E0,1.893686958E0,-2.265919209E0,1.294133782E0,-5.447739363E-1
1.907512958E0,-4.324207764E0,-1.265977386E1,-3.382516022E0,1.903741958E0,-2.121369362E0,1.307613373E0,-3.086847365E-1
1.917568958E0,-2.428699493E0,-1.076501404E1,-2.424208832E0,1.913797958E0,-1.916622162E0,1.366487145E0,-9.231741726E-2
1.927623958E0,-1.824705505E0,-9.268126831E0,-1.627266083E0,1.923852958E0,-1.547178864E0,1.275519133E0,1.378078945E-2
1.937679958E0,-1.395547943E0,-8.271798706E0,-4.660558319E0,1.933908958E0,-3.540241420E-1,-1.290797114E0,-2.797236741E-1
1.947734958E0,1.012644196E0,-6.807843018E0,-3.080144806E0,1.943963958E0,-4.689986706E-1,-2.667539358E0,-9.907152653E-1
1.957790958E0,1.977687378E0,-7.069349213E0,3.480262756E-1,1.954019958E0,-1.175946712E0,-2.449414730E0,-1.446011662E0
1.967845958E0,2.858755188E0,-6.556216278E0,2.083367615E0,1.964074958E0,-1.667771816E0,-1.648687005E0,-1.675562263E0
1.977901958E0,3.417094116E0,-6.024072876E0,1.638492737E0,1.974130958E0,-1.863942742E0,-1.230033636E0,-1.755939484E0
1.987956958E0,3.462749176E0,-6.069578247E0,6.095324707E-1,1.984185958E0,-1.916837096E0,-1.348441243E0,-1.666757703E0
1.998012958E0,3.219954071E0,-6.297853546E0,-6.167175293E-2,1.994241958E0,-1.924304962E0,-1.779767394E0,-1.411100149E0
2.008067958E0,2.903212738E0,-6.250701599E0,-2.909948730E-1,2.004296958E0,-1.893236041E0,-2.238618612E0,-1.015116572E0
2.018123958E0,2.589315491E0,-5.903274078E0,-6.358776855E-1,2.014352958E0,-1.814260364E0,-2.778410673E0,-6.202862263E-1
2.028178958E0,2.206262054E0,-5.421426086E0,-1.679507446E-1,2.024408958E0,-1.707905769E0,-3.065801144E0,-2.795198262E-1
2.038234958E0,1.449585571E0,-5.067561951E0,1.056952057E0,2.034463958E0,-1.587551236E0,-2.871051073E0,-1.448623836E-1
2.048289958E0,5.336402893E-1,-4.857848053E0,1.035696259E0,2.044519958E0,-1.368039131E0,-2.563216686E0,-2.478838414E-1
2.058345833E0,-1.773811340E-1,-4.949307861E0,2.435435486E-1,2.054574833E0,-1.094576955E0,-2.357506752E0,-4.628463387E-1
2.068400833E0,-1.009351044E0,-5.430706787E0,-5.626799011E-1,2.064630833E0,-7.797614932E-1,-2.269872427E0,-6.603056192E-1
2.078456833E0,-1.194366302E0,-5.742508392E0,-1.283281403E0,2.074685833E0,-4.861554503E-1,-2.508731604E0,-7.152891159E-1
2.088511833E0,-1.774859161E0,-5.352718964E0,-8.223898315E-1,2.084741833E0,-1.380182356E-1,-2.542392254E0,-8.448196650E-1
2.098567833E0,-2.330054626E0,-4.925357666E0,-8.312214661E-1,2.094796833E0,1.937417388E-1,-2.508494616E0,-9.841200709E-1
2.108622833E0,-2.384691010E0,-4.677922211E0,-8.035290527E-1,2.104852833E0,4.666835368E-1,-2.456412792E0,-1.039201498E0
2.118678833E0,-2.481539612E0,-4.259841614E0,-6.083349609E-1,2.114907833E0,6.996473670E-1,-2.256383181E0,-1.069652557E0
2.128733833E0,-2.269281006E0,-4.275409241E0,-4.179309082E-1,2.124963833E0,9.960744977E-1,-1.903844833E0,-1.037083268E0
2.138789833E0,-2.108964386E0,-4.859344940E0,-1.037941589E0,2.135018833E0,1.290102959E0,-1.504740000E0,-9.156585932E-1
2.148844833E0,-2.232457581E0,-5.741310883E0,-2.629731445E0,2.145074833E0,1.520625114E0,-1.291157126E0,-7.325606942E-1
2.158900833E0,-2.313139801E0,-6.968009949E0,-3.686384125E0,2.155129833E0,1.687037110E0,-1.172317743E0,-5.536947250E-1
2.168956833E0,-1.973795471E0,-8.123157806E0,-4.080364838E0,2.165185833E0,1.793594480E0,-1.103706479E0,-4.354661405E-1
2.179011833E0,-1.631756744E0,-9.506580963E0,-3.740870819E0,2.175240833E0,1.801767707E0,-9.177093506E-1,-2.989349663E-1
2.189067833E0,-1.524280243E0,-1.067564987E1,-4.082759857E0,2.185296833E0,1.667303324E0,-6.906860471E-1,-1.408379823E-1
2.199122833E0,-1.732048187E0,-1.139460480E1,-5.323230286E0,2.195351833E0,1.363811731E0,-5.241400003E-1,-9.440229088E-2
2.209178833E0,-2.208657074E0,-1.210637466E1,-5.210814056E0,2.205407833E0,1.037164569E0,-2.022514343E-1,-9.609179944E-2
2.219233833E0,-2.545456696E0,-1.302321808E1,-6.411467285E0,2.215462833E0,6.235028505E-1,4.461666569E-2,-3.427174687E-2
2.229289833E0,-2.716401215E0,-1.379171997E1,-9.923164673E0,2.225518833E0,9.742014110E-2,-2.430659831E-1,9.554351121E-2
2.239344833E0,-2.913690948E0,-1.387105499E1,-1.298893936E1,2.235573833E0,-4.339675307E-1,-9.779800177E-1,1.874678880E-1
2.249400833E0,-2.851719818E0,-1.290511368E1,-1.384216507E1,2.245629833E0,-7.426505089E-1,-1.586861730E0,1.621215194E-1
2.259455833E0,-2.277064819E0,-1.209844116E1,-1.265678009E1,2.255684833E0,-7.273286581E-1,-1.757346630E0,1.620558947E-1
2.269511833E0,-1.535955963E0,-1.165296753E1,-9.112001495E0,2.265740833E0,-4.989276826E-1,-1.316459537E0,9.116254002E-2
2.279566833E0,-1.130748596E0,-1.089269852E1,-5.211861877E0,2.275795833E0,-2.901110351E-1,-5.990812778E-1,-1.219923943E-1
2.289622833E0,-1.249601440E0,-1.059377014E1,-4.842729492E0,2.285851833E0,-3.201086223E-1,-4.121098518E-1,-2.748021781E-1
2.299677833E0,-1.624571686E0,-1.011012589E1,-6.263275452E0,2.295906833E0,-6.195070744E-1,-7.968397737E-1,-3.052171469E-1
2.309733833E0,-1.519939270E0,-9.171577606E0,-7.664511566E0,2.305962833E0,-9.722520709E-1,-1.359630942E0,-3.161326647E-1
2.319788833E0,-6.527925110E-1,-8.098309479E0,-7.439529419E0,2.316018833E0,-1.067851543E0,-1.470946550E0,-3.208234608E-1
2.329844833E0,1.833686829E-1,-6.558461609E0,-6.422394562E0,2.326073833E0,-8.588605523E-1,-1.059335232E0,-3.069846034E-1
2.339899833E0,-3.832031250E-2,-4.808450775E0,-5.757926331E0,2.336129833E0,-4.353168905E-1,-4.777867198E-1,-2.479103655E-1
2.349955833E0,-2.223027191E0,-5.258564758E0,-5.446873169E0,2.346184833E0,4.508354887E-2,-2.985155582E-2,-1.298132986E-1
2.360010833E0,-4.014651489E0,-8.849746857E0,-5.525908813E0,2.356240833E0,4.506699145E-1,9.768930078E-2,9.283234179E-2
2.370066833E0,-4.985981598E0,-1.258058853E1,-3.779490509E0,2.366295833E0,8.947162628E-1,3.797702491E-1,3.363334239E-1
2.380121833E0,-6.674470367E0,-1.702664291E1,-1.153501282E0,2.376351833E0,1.273635983E0,9.989293814E-1,6.519876122E-1
2.390177833E0,-8.040379944E0,-2.131312912E1,1.745071106E0,2.386406833E0,1.150870323E0,1.820136309E0,9.079482555E-1
2.400232833E0,-8.080197144E0,-2.118604340E1,4.555476837E0,2.396462833E0,5.753176212E-1,2.531414270E0,7.887818813E-1
2.410288833E0,-5.964197388E0,-1.527543457E1,2.535128174E0,2.406517833E0,4.909191281E-2,2.176332951E0,4.634554088E-1
2.420343833E0,-2.507585449E0,-9.096284180E0,3.438798981E0,2.416573833E0,-6.152078882E-2,1.799752951E0,3.116256595E-1
2.430399833E0,-4.326004028E-1,-7.338489532E0,5.379064178E0,2.426628833E0,1.342732161E-1,1.786097527E0,4.132079482E-1
2.440454833E0,6.448590088E-1,-4.962630157E0,5.158722382E0,2.436684833E0,1.819169670E-1,1.615411758E0,5.146096349E-1
2.450510833E0,5.108876038E-1,-4.794829102E0,5.189109192E0,2.446739833E0,1.109860614E-1,1.552904248E0,5.141814351E-1
2.460565833E0,-2.040257263E-1,-5.496569824E0,4.159550171E0,2.456795833E0,1.200147048E-1,1.629047751E0,5.541075468E-1
2.470621833E0,-4.210743713E-1,-5.699847107E0,3.887715454E0,2.466850833E0,4.987795353E-1,1.873296857E0,5.530205965E-1
2.480677833E0,-4.968168640E-1,-6.707701263E0,4.188589783E0,2.476906833E0,1.133202076E0,2.360193729E0,6.039246917E-1
2.490732833E0,-5.466632080E-1,-8.195457458E0,3.972289581E0,2.486961833E0,1.708402753E0,2.831578970E0,7.229099274E-1
2.500788833E0,-1.149160309E0,-9.188791809E0,4.305945740E0,2.497017833E0,1.927663088E0,3.283276558E0,9.100021720E-1
2.510843833E0,-1.524878998E0,-9.275012512E0,4.259841614E0,2.507072833E0,1.841907620E0,3.619206429E0,1.101626754E0
2.520899833E0,-1.337169342E0,-1.007105713E1,3.412902832E0,2.517128833E0,1.670274854E0,3.798012733E0,1.288193226E0
2.530954833E0,-1.080153809E0,-1.121303238E1,2.116299133E0,2.527183833E0,1.555026054E0,3.625153542E0,1.444234490E0
2.541010833E0,-7.255412292E-1,-1.303564224E1,7.975415039E-1,2.537239833E0,1.459446669E0,2.888896227E0,1.545144081E0
2.551065833E0,4.056564331E-2,-1.516705994E1,-6.051914978E-1,2.547294833E0,1.356600761E0,1.622392893E0,1.342785358E0
2.561121833E0,1.192420349E0,-1.384575760E1,-2.201921082E0,2.557350833E0,1.450093150E0,2.904255986E-1,7.676008940E-1
2.571176833E0,2.863395538E0,-1.040591080E1,-3.504362640E0,2.567405833E0,1.949328780E0,-8.718457818E-1,1.733769923E-1
2.581232833E0,3.557352448E0,-8.057594147E0,-2.366428986E0,2.577461833E0,2.369921446E0,-1.548546195E0,-1.546415538E-1
2.591287833E0,2.684517517E0,-7.232958984E0,1.137634277E-2,2.587516833E0,2.446805716E0,-1.267637849E0,-3.164669573E-1
2.601343833E0,7.349716187E-1,-6.992858276E0,1.643432465E0,2.597572833E0,2.148784876E0,-9.951176494E-2,-5.060348511E-1
2.611398833E0,-3.359014893E-1,-7.480843506E0,1.113235016E0,2.607628833E0,1.697687626E0,1.130741358E0,-5.179919004E-1
2.621454833E0,-6.987469482E-1,-8.037685547E0,-6.527925110E-1,2.617683833E0,1.409607172E0,1.758461237E0,-4.212894738E-1
2.631509833E0,-1.095571747E0,-8.342002716E0,-1.613943787E0,2.627739833E0,1.255426884E0,1.767051697E0,-3.146423697E-1
2.641565833E0,-1.459764404E0,-8.452023926E0,-1.873204651E0,2.637794833E0,1.164002061E0,1.419458270E0,-2.149966210E-1
2.651620833E0,-1.418749695E0,-8.656349030E0,-1.716330872E0,2.647850833E0,1.065581441E0,1.059917450E0,-1.232398003E-1
2.661676833E0,-9.357041931E-1,-8.995543671E0,-1.017134857E0,2.657905833E0,1.006402254E0,9.670034647E-1,-6.134873629E-2
2.671731833E0,-4.080514526E-1,-9.539063416E0,-7.917036438E-1,2.667961833E0,1.003751159E0,1.019778728E0,2.565673739E-2
2.681787833E0,6.406677246E-2,-9.714348907E0,-9.303153992E-1,2.678016833E0,9.803323746E-1,1.020517230E0,7.891622931E-2
2.691842833E0,6.186634827E-1,-1.002375549E1,-1.065334625E0,2.688072833E0,9.310279489E-1,9.655411243E-1,1.228591800E-1
2.701898833E0,1.070274353E0,-1.026804749E1,-1.416354675E0,2.698127833E0,9.121113420E-1,8.672558665E-1,1.396383047E-1
2.711953833E0,1.365460510E0,-1.003797592E1,-1.789528656E0,2.708183833E0,9.278769493E-1,7.448923588E-1,1.623359025E-1
2.722009833E0,1.535806274E0,-9.444609833E0,-2.234702911E0,2.718238833E0,9.388161898E-1,5.497082472E-1,1.893227696E-1
2.732064833E0,1.567390594E0,-8.956624603E0,-2.289938049E0,2.728294833E0,9.549490809E-1,3.959698379E-1,2.350947857E-1
2.742120833E0,1.479074249E0,-8.620723114E0,-1.969304810E0,2.738349833E0,1.000707746E0,4.141206145E-1,2.333737761E-1
2.752175833E0,1.420845337E0,-8.497379608E0,-1.650467834E0,2.748405833E0,1.046884298E0,5.521472096E-1,2.765342891E-1
2.762231833E0,1.330583038E0,-8.657845917E0,-1.468745728E0,2.758460833E0,1.065294147E0,7.022071481E-1,3.086176515E-1
2.772287833E0,1.153501282E0,-8.651558990E0,-1.484013977E0,2.768516833E0,1.052354574E0,7.758302093E-1,3.069491684E-1
2.782342833E0,9.605525208E-1,-8.771908722E0,-1.609303436E0,2.778571833E0,1.025992274E0,7.127205133E-1,2.648624480E-1
2.792398833E0,8.348139954E-1,-9.052275696E0,-1.566941528E0,2.788627833E0,9.929698706E-1,5.408954620E-1,1.979172230E-1
2.802453833E0,6.129753113E-1,-9.286239166E0,-1.444047089E0,2.798682833E0,9.518107176E-1,3.681893349E-1,1.678950638E-1
2.812509833E0,5.655239868E-1,-9.342222748E0,-1.203347626E0,2.808738833E0,8.941833377E-1,2.192666978E-1,2.062083632E-1
2.822564833E0,7.650590515E-1,-9.367370453E0,-8.066725159E-1,2.818793833E0,8.033275008E-1,1.111483574E-1,2.526386380E-1
2.832620833E0,9.565109253E-1,-9.427844696E0,-2.436932373E-1,2.828849833E0,6.634827852E-1,4.361271486E-2,2.503427267E-1
2.842675833E0,9.927355957E-1,-9.379046173E0,3.600013733E-1,2.838904833E0,4.940754175E-1,-2.243052796E-2,2.165270001E-1
2.852731833E0,7.855664063E-1,-9.173224182E0,7.717950439E-1,2.848960833E0,3.880515099E-1,-1.330688894E-1,1.583670229E-1
2.862786833E0,4.040098572E-1,-9.167386322E0,9.415420532E-1,2.859015833E0,3.670386374E-1,-2.554629743E-1,6.794676185E-2
2.872842833E0,7.694000244E-2,-9.663754120E0,1.010698242E0,2.869071833E0,3.835569024E-1,-3.444796801E-1,-1.587117463E-2
2.882897833E0,-3.426374817E-1,-1.049332901E1,1.067430267E0,2.879126833E0,3.969773054E-1,-3.536738753E-1,-8.545289189E-2
2.892953833E0,-6.837780762E-1,-1.161135406E1,1.107696533E0,2.889182833E0,4.330138564E-1,-2.497967482E-1,-1.094282717E-1
2.903008833E0,-8.542735291E-1,-1.249302063E1,1.124910736E0,2.899238833E0,4.833869636E-1,-2.880760469E-2,-7.035563141E-2
2.913064833E0,-8.999285889E-1,-1.282308426E1,9.337582397E-1,2.909293833E0,4.961003363E-1,2.439504266E-1,-1.833293703E-3
2.923119833E0,-8.647517395E-1,-1.287787033E1,3.580554199E-1,2.919349833E0,4.638722241E-1,4.979631603E-1,4.407130554E-2
2.933175833E0,-6.472540283E-1,-1.283176620E1,-5.640270996E-1,2.929404833E0,4.158506393E-1,6.646624207E-1,9.861258417E-2
2.943230833E0,-1.621128845E-1,-1.262639328E1,-1.457818451E0,2.939460833E0,3.880249560E-1,6.834052205E-1,1.169722900E-1
2.953286833E0,4.240681458E-1,-1.238569382E1,-2.003284149E0,2.949515833E0,3.709535599E-1,6.834137440E-1,8.420502394E-2
2.963341833E0,1.180445251E0,-1.242670853E1,-2.113604736E0,2.959571833E0,3.089597523E-1,7.690876722E-1,7.955018431E-2
2.973397833E0,1.969454498E0,-1.258927048E1,-2.213596802E0,2.969626833E0,1.375488490E-1,8.195718527E-1,9.093679488E-2
2.983452833E0,2.489772491E0,-1.274105484E1,-2.239043884E0,2.979682833E0,-1.891299784E-1,7.176067233E-1,7.195482403E-2
2.993508833E0,2.799179077E0,-1.293624893E1,-2.406096497E0,2.989737833E0,-5.515885949E-1,4.646002352E-1,3.686551470E-3
3.003563833E0,3.182531891E0,-1.325209213E1,-2.531535645E0,2.999793833E0,-8.253898025E-1,1.278639585E-1,-8.562438190E-2
3.013619833E0,3.710933075E0,-1.344848373E1,-1.766326904E0,3.009848833E0,-1.056489587E0,-2.013823688E-1,-2.203414440E-1
3.023674833E0,3.985013123E0,-1.321287369E1,-4.038601685E-1,3.019904833E0,-1.261059284E0,-4.140441418E-1,-4.101221561E-1
3.033730833E0,3.443589020E0,-1.281515076E1,2.854563904E-1,3.029959833E0,-1.393453240E0,-5.518576503E-1,-5.263534188E-1
3.043785833E0,1.756297760E0,-1.202958435E1,-9.969268799E-2,3.040015833E0,-1.490607500E0,-7.288352847E-1,-5.929256678E-1
3.053841833E0,-4.471202087E-1,-1.054736664E1,-6.316864014E-2,3.050070833E0,-1.566597104E0,-8.410035968E-1,-6.408351660E-1
3.063897833E0,-2.497107239E0,-9.305998077E0,-6.810836792E-2,3.060126833E0,-1.747616053E0,-7.762112021E-1,-5.258608460E-1
3.073952833E0,-4.043541412E0,-8.720565491E0,-6.156697083E-1,3.070181833E0,-2.105997562E0,-6.699739695E-1,-2.891327441E-1
3.084008833E0,-4.658911743E0,-8.963210907E0,-4.022135925E-1,3.080237833E0,-2.610987902E0,-5.535455942E-1,-2.573364228E-2
3.094063833E0,-4.614304504E0,-9.502389679E0,1.370549927E0,3.090292833E0,-2.988972187E0,-3.362047374E-1,1.572518945E-1
3.104119833E0,-4.503385162E0,-1.037133270E1,3.472478943E0,3.100348833E0,-3.084558725E0,8.086349070E-2,2.219088078E-1
3.114174833E0,-4.857249298E0,-1.202329742E1,5.332211609E0,3.110403833E0,-3.003282785E0,8.377397060E-1,2.333630621E-1
3.124230833E0,-5.413342896E0,-1.392329636E1,6.192023621E0,3.120459833E0,-2.816197634E0,1.787839532E0,2.247599661E-1
3.134285833E0,-6.384373627E0,-1.540057434E1,5.709427185E0,3.130514833E0,-2.566841841E0,2.723443985E0,2.780160308E-1
3.144341833E0,-8.323890381E0,-1.475616440E1,2.550097046E0,3.140570833E0,-2.331216574E0,3.299163580E0,8.364452422E-2
3.154396833E0,-9.539512482E0,-1.286245239E1,-4.321064301E0,3.150625833E0,-2.096827030E0,2.918117523E0,-5.299054384E-1
3.164452833E0,-7.529791718E0,-1.330642914E1,-8.505013733E0,3.160681833E0,-1.867806435E0,1.828513384E0,-6.239122748E-1
3.174507833E0,-5.562432861E0,-1.294298492E1,-6.129753113E0,3.170736833E0,-1.807533622E0,1.206510782E0,-3.885935247E-1
3.184563833E0,-3.379522247E0,-1.182271454E1,-3.249891815E0,3.180792833E0,-1.861634612E0,1.129327297E0,-1.330769509E-1
3.194618833E0,-8.662486267E-1,-9.678124237E0,-7.896080017E-1,3.190847833E0,-1.674992323E0,1.052963853E0,-1.355233341E-1
3.204674833E0,2.857857056E0,-6.514453125E0,5.581143951E0,3.200903833E0,-9.625633955E-1,2.528840780E0,-7.714309692E-1
3.214729833E0,2.409539337E0,-8.693322144E0,-6.138135681E0,3.210959833E0,-3.150562346E-1,-2.087926120E-1,-1.326693892E0
3.224785833E0,1.254241791E0,-7.945776672E0,-2.970123596E0,3.221014833E0,-2.063217878E0,-2.976012230E0,-1.363106847E0
3.234840833E0,2.842888184E0,-7.533983002E0,2.844085693E0,3.231070833E0,-3.340046644E0,-3.467998743E0,-1.028991938E0
3.244896833E0,4.007616119E0,-8.133935394E0,1.801503754E0,3.241125833E0,-3.429412127E0,-2.660638809E0,-7.575562000E-1
3.254951833E0,3.491489410E0,-7.899672546E0,-1.749711456E0,3.251181833E0,-2.906622171E0,-2.233815193E0,-6.077957153E-1
3.265007833E0,2.439477081E0,-6.945556641E0,-2.673290863E0,3.261236833E0,-2.046828985E0,-2.134841204E0,-5.578745008E-1
3.275062833E0,9.357041931E-1,-6.637796631E0,-1.739233246E0,3.271292833E0,-1.308067203E0,-1.674164891E0,-5.545165539E-1
3.285118833E0,1.444496155E-1,-6.287375336E0,-1.856589203E0,3.281347833E0,-7.966809273E-1,-1.410621047E0,-5.559412837E-1
3.295173833E0,-5.459147644E-1,-5.887407074E0,-1.817370758E0,3.291403833E0,-4.435513616E-1,-1.341132760E0,-5.982794166E-1
3.305229833E0,-1.254541168E0,-5.792354736E0,-1.771116943E0,3.301458833E0,-2.186164707E-1,-1.512031794E0,-6.345340014E-1
3.315284833E0,-1.632205811E0,-5.754034424E0,-1.216220856E0,3.311514833E0,-1.131587550E-1,-1.723872662E0,-6.634162068E-1
3.325340833E0,-1.966760101E0,-5.586383057E0,-3.400927734E-1,3.321569833E0,-1.101114377E-1,-1.820793867E0,-7.190134525E-1
3.335396833E0,-2.074386292E0,-5.212460632E0,6.062393188E-2,3.331625833E0,-1.265692264E-1,-1.888627172E0,-7.515876293E-1
3.345451833E0,-2.014810181E0,-5.037474518E0,4.775070190E-2,3.341680833E0,-9.434533864E-2,-1.953669190E0,-7.294480801E-1
3.355507833E0,-1.834884338E0,-4.796176300E0,-6.646179199E-2,3.351736833E0,4.399095848E-2,-2.002867222E0,-7.068570256E-1
3.365562833E0,-1.717378693E0,-4.651576996E0,-3.218307495E-2,3.361791833E0,2.436220199E-1,-1.961638451E0,-7.031765580E-1
3.375618833E0,-1.513951721E0,-4.644242249E0,1.049317932E-1,3.371847833E0,4.677382112E-1,-1.804468274E0,-6.762626767E-1
3.385673833E0,-1.333726501E0,-4.629423065E0,1.308279419E-1,3.381902833E0,6.439732313E-1,-1.528915286E0,-6.092345119E-1
3.395729833E0,-1.291065216E0,-4.766837311E0,-5.748046875E-1,3.391958833E0,8.182853460E-1,-1.304779053E0,-5.496558547E-1
3.405784833E0,-1.197360077E0,-5.041216736E0,-1.486408997E0,3.402013833E0,1.021875620E0,-1.184258699E0,-4.962828457E-1
3.415840833E0,-1.117875366E0,-5.400918732E0,-2.319277039E0,3.412069833E0,1.220901370E0,-1.151581168E0,-4.242643118E-1
3.425895833E0,-1.041384430E0,-6.035598907E0,-2.887944489E0,3.422124833E0,1.372318268E0,-1.148466468E0,-3.334155381E-1
3.435951833E0,-1.046174469E0,-6.974147186E0,-3.393443298E0,3.432180833E0,1.469918013E0,-1.166163445E0,-2.627557516E-1
3.446006833E0,-9.886940002E-1,-7.641758881E0,-3.554508362E0,3.442235833E0,1.551911473E0,-1.116253495E0,-2.411665618E-1
3.456062833E0,-1.081501007E0,-8.720864868E0,-3.569327545E0,3.452291833E0,1.572635055E0,-9.964907169E-1,-2.119178623E-1
3.466117833E0,-9.689350891E-1,-9.980944519E0,-3.733985138E0,3.462347833E0,1.521182418E0,-7.721863985E-1,-1.807758063E-1
3.476173833E0,-8.330177307E-1,-1.114207993E1,-4.629423065E0,3.472402833E0,1.351029038E0,-5.589026213E-1,-1.982285678E-1
3.486228833E0,-1.083746338E0,-1.195953003E1,-5.555696869E0,3.482458833E0,1.017615557E0,-4.975062013E-1,-2.724784017E-1
3.496284833E0,-1.577868805E0,-1.196222443E1,-6.363716583E0,3.492513833E0,6.568320394E-1,-4.488689005E-1,-2.773911357E-1
3.506339833E0,-1.596280518E0,-1.178993271E1,-8.620723114E0,3.502569833E0,2.129952610E-1,-6.489043236E-1,-1.885561943E-1
3.516395833E0,-1.431173859E0,-1.132170639E1,-1.029154861E1,3.512624833E0,-1.972287446E-1,-9.506375790E-1,-6.653682142E-2
3.526450833E0,-1.078507233E0,-1.066592010E1,-1.134835098E1,3.522680833E0,-4.674226642E-1,-1.298360467E0,7.679942995E-2
3.536506833E0,-9.994715881E-1,-1.079135925E1,-1.095302307E1,3.532735833E0,-5.131247044E-1,-1.399622440E0,1.336904019E-1
3.546561833E0,-4.680766296E-1,-1.164608185E1,-9.259145508E0,3.542791833E0,-3.321747780E-1,-1.291411877E0,1.251624227E-1
3.556617833E0,1.716929626E-1,-1.254077133E1,-6.685846710E0,3.552846833E0,-1.218553558E-1,-9.920756817E-1,2.524381131E-2
3.566672833E0,-1.170565796E-1,-1.294328430E1,-5.384752350E0,3.562902833E0,-7.189426571E-2,-9.446139336E-1,-1.644459516E-1
3.576728833E0,-5.504054260E-1,-1.302710999E1,-5.045557709E0,3.572957833E0,-2.291233093E-1,-1.207286477E0,-3.096643984E-1
3.586783833E0,-5.469625854E-1,-1.191911407E1,-5.303022308E0,3.583013833E0,-4.929799139E-1,-1.482716441E0,-3.956407011E-1
3.596839833E0,1.642085266E-1,-1.035980667E1,-5.837710419E0,3.593068833E0,-6.185532808E-1,-1.451655507E0,-3.512103856E-1
3.606895833E0,3.571572876E-1,-8.998986511E0,-5.876030731E0,3.603124833E0,-5.286440849E-1,-1.037640333E0,-2.567404509E-1
3.616950833E0,-8.707392883E-1,-8.864865417E0,-5.783822479E0,3.613179833E0,-2.776866853E-1,-4.079410136E-1,-1.931574941E-1
3.627006833E0,-2.858904877E0,-1.083536774E1,-6.345155182E0,3.623235833E0,-5.315620080E-2,-3.630412742E-2,-8.827809989E-2
3.637061833E0,-3.940854950E0,-1.288535477E1,-5.351371765E0,3.633290833E0,1.192448661E-1,2.917264998E-1,3.846680000E-2
3.647117833E0,-4.758754120E0,-1.447370178E1,-3.530707855E0,3.643346833E0,3.464256823E-1,7.845281363E-1,1.379776895E-1
3.657172833E0,-5.322332153E0,-1.638253235E1,-1.531614990E0,3.653401833E0,5.242819786E-1,1.385971904E0,2.065932453E-1
3.667228833E0,-5.282514954E0,-1.728410751E1,1.247805176E0,3.663457833E0,5.025441051E-1,2.213815451E0,1.946303248E-1
3.677283833E0,-4.877606964E0,-1.670496185E1,2.506986694E0,3.673512833E0,3.314410448E-1,2.930169582E0,1.506617963E-1
3.687339833E0,-4.324058075E0,-1.379755783E1,1.692680054E0,3.683568833E0,1.695971489E-1,2.856375217E0,9.667888284E-3
3.697394833E0,-2.812651062E0,-9.893975372E0,1.864522705E0,3.693623833E0,8.622768521E-2,2.238436222E0,-2.584636807E-1
3.707450833E0,-1.171014862E0,-6.759493561E0,2.573747864E0,3.703679833E0,-8.943039924E-2,1.388856411E0,-2.953951955E-1
3.717505833E0,-2.686912537E-1,-5.141208801E0,4.422702942E0,3.713734833E0,-2.957934141E-1,9.427258968E-1,-2.105359733E-1
3.727561833E0,-4.052073669E-1,-3.849095764E0,5.534890137E0,3.723790833E0,-3.575466573E-1,1.044343829E0,-1.015563011E-1
3.737616833E0,-7.620652771E-1,-3.639681244E0,3.328328705E0,3.733845833E0,-2.761450112E-1,1.131216168E0,3.033781797E-2
3.747672833E0,-1.196461945E0,-4.392316132E0,2.927911377E-1,3.743901833E0,-6.488206564E-4,1.047692060E0,1.691146046E-1
3.757727833E0,-1.270557861E0,-5.204377441E0,-1.029858398E0,3.753957833E0,4.806799889E-1,1.067614675E0,2.891310453E-1
3.767783833E0,-9.541159058E-1,-6.444548492E0,-2.751278687E-1,3.764012833E0,8.714135289E-1,1.410390615E0,4.327254295E-1
3.777838833E0,-8.391549683E-1,-7.966433716E0,1.380429382E0,3.774068833E0,1.063719392E0,2.117956400E0,5.919853449E-1
3.787894833E0,-8.150550842E-1,-1.000624191E1,2.052980804E0,3.784123833E0,1.102571130E0,2.669284344E0,7.849424481E-1
3.797949833E0,-1.022523651E0,-1.114791779E1,1.440304871E0,3.794179833E0,1.007828116E0,2.722298861E0,9.605073333E-1
3.808005833E0,-1.107546844E0,-1.072953781E1,1.211430817E0,3.804234833E0,7.741252780E-1,2.432043791E0,1.090065479E0
3.818060833E0,-9.912387085E-1,-1.029843430E1,1.289568329E0,3.814290833E0,6.011276245E-1,1.914891958E0,1.155856490E0
3.828116833E0,-6.216572571E-1,-1.000369720E1,9.187893677E-1,3.824345833E0,6.707421541E-1,1.381822824E0,1.207348585E0
3.838171833E0,-5.703140259E-2,-9.927355957E0,-1.071771240E-1,3.834401833E0,9.961791039E-1,7.152407765E-1,1.167129755E0
3.848227833E0,-1.297801208E-1,-1.066861450E1,-5.990542603E-1,3.844456833E0,1.504960537E0,3.529967740E-3,9.696287513E-1
3.858282833E0,-3.983216858E-1,-1.145163620E1,-1.337319031E0,3.854512833E0,2.064435959E0,-7.407870293E-1,5.195888281E-1
3.868338833E0,2.315684509E-1,-1.080977097E1,-2.513123932E0,3.864567833E0,2.539230347E0,-1.629428744E0,1.070317775E-1
3.878394833E0,1.597328339E0,-9.181307373E0,-3.536994781E0,3.874623833E0,2.599961042E0,-2.467107534E0,5.592504516E-3
3.888449833E0,2.858006744E0,-7.787855072E0,-2.585423584E0,3.884678833E0,2.178808212E0,-2.403924227E0,8.969191462E-2
3.898505833E0,3.025358734E0,-7.231761475E0,-4.314028931E-1,3.894734833E0,1.457152247E0,-1.227761865E0,1.824205369E-1
3.908560833E0,3.044818268E0,-7.346423035E0,1.631607056E-2,3.904789833E0,9.304942489E-1,-4.688813537E-2,2.578556538E-1
3.918616833E0,2.293231201E0,-7.867040405E0,-2.347119141E-1,3.914845833E0,7.733914256E-1,6.075069904E-1,1.428276151E-1
3.928671833E0,1.138233032E0,-8.184230804E0,-6.924600220E-1,3.924900833E0,8.604694009E-1,6.481550932E-1,-5.128706992E-2
3.938727833E0,2.239343262E-1,-8.196654968E0,-4.908293152E-1,3.934956833E0,1.013324261E0,4.242862761E-1,-2.231672108E-1
3.948782833E0,-3.646417236E-1,-8.687035217E0,-2.525248718E-1,3.945011833E0,1.084710717E0,2.516312599E-1,-2.850297689E-1
3.958838833E0,-5.222639465E-1,-9.076974335E0,-2.887495422E-1,3.955067833E0,1.098585486E0,2.215593606E-1,-2.321857214E-1
3.968893833E0,-6.628216553E-1,-8.944799194E0,-5.099894714E-1,3.965122833E0,1.071721435E0,3.400666118E-1,-1.666237861E-1
3.978949833E0,-5.170248413E-1,-9.003776550E0,-1.106948090E0,3.975178833E0,1.030864000E0,4.146798551E-1,-1.144410223E-1
3.989004833E0,-3.354524231E-1,-9.121880951E0,-1.632954254E0,3.985233833E0,1.002524734E0,3.780998886E-1,-8.952856064E-2
3.999060833E0,-1.591191101E-1,-9.063053284E0,-1.520538025E0,3.995289833E0,9.993795156E-1,3.546305001E-1,-4.994653538E-2
4.009115833E0,-1.270857239E-1,-8.862320709E0,-1.172661438E0,4.005344833E0,9.950072765E-1,3.770487607E-1,6.402236968E-2
4.019171833E0,-2.267784119E-1,-8.409811707E0,-9.765692139E-1,4.015400833E0,9.724037051E-1,3.460000157E-1,1.968957335E-1
4.029226833E0,-4.023632813E-1,-8.141719208E0,-9.114546204E-1,4.025456833E0,9.356914163E-1,2.241765559E-1,2.935510576E-1
4.039282833E0,-4.893324280E-1,-8.279133453E0,-9.095086670E-1,4.035511833E0,9.402009845E-1,2.230229042E-2,3.630598187E-1
4.049337833E0,-3.695814514E-1,-8.342751160E0,-8.265811157E-1,4.045567833E0,1.001404166E0,-2.319803089E-1,4.121927321E-1
4.059395708E0,-2.297721863E-1,-8.425678711E0,-6.921606445E-1,4.055624708E0,1.088948488E0,-4.401985109E-1,4.268686175E-1
4.069450708E0,-1.718426514E-1,-8.691825256E0,-4.936734009E-1,4.065680708E0,1.131278634E0,-4.326007366E-1,4.296928942E-1
4.079506708E0,-2.125579834E-2,-8.974886627E0,-4.373904419E-1,4.075735708E0,1.128140450E0,-2.878321111E-1,4.236267507E-1
4.089561708E0,1.324745178E-1,-9.270671539E0,-1.574725342E-1,4.085791708E0,1.063620687E0,-7.739145309E-2,4.078433812E-1
4.099617708E0,2.399510193E-1,-9.572444000E0,1.645079041E-1,4.095846708E0,9.536896348E-1,9.880647808E-2,3.914881051E-1
4.109672708E0,1.968406677E-1,-9.696985016E0,3.998185730E-1,4.105902708E0,8.347676396E-1,1.897658408E-1,3.511464298E-1
4.119728708E0,-3.832031250E-2,-9.742789764E0,6.653663635E-1,4.115957708E0,7.369446754E-1,2.147526741E-1,3.072322309E-1
4.129783708E0,-3.112028503E-1,-9.722132721E0,7.554789734E-1,4.126013708E0,6.748270392E-1,1.609926969E-1,2.450433224E-1
4.139839708E0,-5.249583435E-1,-1.009919861E1,8.520281982E-1,4.136068708E0,6.110951900E-1,7.649299502E-2,1.777617484E-1
4.149895708E0,-4.987628174E-1,-1.095392120E1,8.839118958E-1,4.146124708E0,5.205078721E-1,-1.016551256E-2,1.236504316E-1
4.159950708E0,-2.444416809E-1,-1.182046921E1,6.661148071E-1,4.156179708E0,4.296208620E-1,-1.093608066E-1,7.849280536E-2
4.170006708E0,2.257305908E-1,-1.260917908E1,4.216731262E-1,4.166235708E0,3.754812777E-1,-1.506604850E-1,3.078931756E-2
4.180061708E0,8.569679260E-1,-1.309297302E1,2.966830444E-1,4.176290708E0,3.685152233E-1,-5.004678667E-2,-1.889887638E-2
4.190117708E0,1.386117554E0,-1.299013687E1,8.083190918E-3,4.186346708E0,3.984377384E-1,1.443593651E-1,-5.922671780E-2
4.200172708E0,1.675765228E0,-1.259705429E1,-3.740721130E-1,4.196401708E0,4.284638166E-1,4.288467765E-1,-6.832300872E-2
4.210228708E0,1.914069672E0,-1.215487381E1,-8.999285889E-1,4.206457708E0,3.851272166E-1,7.277684808E-1,-7.785668969E-2
4.220283708E0,2.027234344E0,-1.186073547E1,-1.793121185E0,4.216512708E0,3.363775313E-1,9.452201128E-1,-1.456101686E-1
4.230339708E0,1.958826599E0,-1.202060303E1,-2.373015289E0,4.226568708E0,2.847518325E-1,1.197142720E0,-2.125254571E-1
4.240394708E0,1.957928467E0,-1.241383530E1,-2.851570129E0,4.236623708E0,1.444564909E-1,1.388720989E0,-2.333412617E-1
4.250450708E0,2.276016998E0,-1.299642380E1,-3.342100067E0,4.246679708E0,-2.006508857E-1,1.336324930E0,-1.885394156E-1
4.260505708E0,2.740351410E0,-1.325463684E1,-3.513643341E0,4.256734708E0,-6.846631169E-1,9.968420267E-1,-1.681923270E-1
4.270561708E0,2.892884216E0,-1.333786377E1,-3.325035553E0,4.266790708E0,-1.094020247E0,5.108762980E-1,-2.166073918E-1
4.280616708E0,3.283571777E0,-1.363469650E1,-2.644101562E0,4.276846708E0,-1.364678264E0,1.068299934E-1,-2.950415015E-1
4.290672708E0,3.848047943E0,-1.319161789E1,-1.495540009E0,4.286901708E0,-1.612268686E0,-1.412598193E-1,-4.340137541E-1
4.300727708E0,3.939208374E0,-1.243703705E1,-5.803431702E-1,4.296957708E0,-1.844627142E0,-4.115504324E-1,-6.520736814E-1
4.310783708E0,3.313359833E0,-1.212523544E1,-1.916015625E-1,4.307012708E0,-1.937286139E0,-8.565468788E-1,-8.409125805E-1
4.320838708E0,1.074315948E0,-1.133173553E1,8.271798706E-1,4.317068708E0,-1.738613009E0,-1.217874765E0,-9.697586894E-1
4.330894708E0,-2.036814423E0,-1.021715332E1,1.714684296E0,4.327123708E0,-1.566201091E0,-1.129184484E0,-9.327402115E-1
4.340949708E0,-4.162693634E0,-9.990973663E0,9.545649719E-1,4.337179708E0,-1.731893301E0,-7.137521505E-1,-6.419195533E-1
4.351005708E0,-5.500012665E0,-1.077639038E1,-4.233197021E-1,4.347234708E0,-2.289173126E0,-3.633822203E-1,-1.282852739E-1
4.361060708E0,-5.874533844E0,-1.119462067E1,1.511856079E-2,4.357290708E0,-2.892445803E0,-1.705597639E-1,2.932417095E-1
4.371116708E0,-5.693111115E0,-1.162153290E1,2.483036499E0,4.367345708E0,-3.194532871E0,2.015094757E-1,4.665707350E-1
4.381171708E0,-5.910459137E0,-1.307066940E1,4.226461029E0,4.377401708E0,-3.184761047E0,8.081411123E-1,5.208563805E-1
4.391227708E0,-6.803801422E0,-1.515688110E1,4.561614075E0,4.387456708E0,-2.965113163E0,1.533317208E0,5.802709460E-1
4.401282708E0,-9.145232391E0,-1.624197464E1,3.209475861E0,4.397512708E0,-2.601207972E0,2.128699064E0,4.927972555E-1
4.411338708E0,-1.173814041E1,-1.505090149E1,-4.519102478E-1,4.407567708E0,-2.203829527E0,2.265820503E0,-6.375237554E-2
4.421394708E0,-9.677824860E0,-1.438643326E1,-4.530029755E0,4.417623708E0,-1.863304019E0,1.797101498E0,-2.796082497E-1
4.431449708E0,-5.557044067E0,-1.299642380E1,-4.824317780E0,4.427678708E0,-1.683486819E0,1.386825204E0,-1.351562738E-1
4.441505708E0,-2.574346619E0,-1.127141098E1,-3.022215271E0,4.437734708E0,-1.710878134E0,1.448318362E0,-1.396306455E-1
4.451560708E0,-7.628137207E-1,-9.771230621E0,-1.200204163E0,4.447789708E0,-1.760854006E0,1.900504112E0,-1.695928574E-1
4.461616708E0,3.185375977E-1,-8.482859802E0,-3.043171692E-1,4.457845708E0,-1.700786114E0,2.374945879E0,-2.186371088E-1
4.471671708E0,5.354365540E-1,-8.400830383E0,-4.130510559E0,4.467900708E0,-9.705636501E-1,4.867300689E-1,-3.848130107E-1
4.481727708E0,1.997446289E0,-8.552015991E0,-5.755531311E0,4.477956708E0,-4.424998164E-1,-2.328628778E0,-1.004152656E0
4.491782708E0,2.854414215E0,-8.072263641E0,-2.477348328E-1,4.488011708E0,-1.047784209E0,-2.669332266E0,-1.458966255E0
4.501838708E0,3.335813141E0,-7.436236267E0,1.880539398E0,4.498067708E0,-1.721968412E0,-2.139792919E0,-1.650041103E0
4.511893708E0,3.234623566E0,-7.272027740E0,1.944755859E0,4.508122708E0,-2.049208403E0,-1.732805490E0,-1.607454896E0
4.521949708E0,2.923121338E0,-7.098388824E0,7.467970276E-1,4.518178708E0,-2.098190784E0,-1.871071696E0,-1.412926197E0
4.532004708E0,2.265838165E0,-6.716981964E0,1.526824951E-2,4.528233708E0,-1.998566985E0,-2.090473175E0,-1.088239193E0
4.542060708E0,1.718725891E0,-6.066734161E0,-4.311035156E-1,4.538289708E0,-1.884345293E0,-2.372377872E0,-7.035112977E-1
4.552115708E0,1.306932220E0,-5.299429779E0,-3.993695068E-1,4.548344708E0,-1.759235501E0,-2.598061323E0,-3.625659943E-1
4.562171708E0,3.851490784E-1,-4.858297119E0,2.320175171E-2,4.558400708E0,-1.586326003E0,-2.643773317E0,-2.459088564E-1
4.572226708E0,-2.917433167E-1,-5.223986664E0,4.412823486E-1,4.568456708E0,-1.415297508E0,-2.537636995E0,-2.210310996E-1
4.582282708E0,-6.987469482E-1,-5.549859009E0,4.619393921E-1,4.578511708E0,-1.197670937E0,-2.331397772E0,-3.019491136E-1
4.592337708E0,-1.306483154E0,-5.372028809E0,-1.633103943E-1,4.588567708E0,-1.001486421E0,-2.223345280E0,-5.139375925E-1
4.602393708E0,-1.610950012E0,-5.528154144E0,-8.310717773E-1,4.598622708E0,-7.709336281E-1,-2.223141909E0,-7.181538343E-1
4.612448708E0,-1.469194794E0,-5.532495117E0,-1.305884399E0,4.608678708E0,-4.886943996E-1,-2.318283319E0,-8.584945798E-1
4.622504708E0,-1.280886383E0,-5.187312927E0,-1.150208130E0,4.618733708E0,-1.890163273E-1,-2.347866774E0,-9.253615141E-1
4.632559708E0,-1.144969025E0,-4.592449951E0,-9.044192505E-1,4.628789708E0,1.057268158E-1,-2.285764933E0,-9.542202950E-1
4.642615708E0,-1.184935913E0,-4.163591766E0,-7.295828247E-1,4.638844708E0,3.746189773E-1,-2.155171871E0,-9.530724883E-1
4.652670708E0,-1.440903625E0,-4.049978027E0,-8.412506104E-1,4.648900708E0,6.077860594E-1,-1.966246009E0,-9.178723693E-1
4.662726708E0,-1.650617523E0,-4.178860016E0,-1.576970673E0,4.658955708E0,8.179236054E-1,-1.838153720E0,-8.586071730E-1
4.672781708E0,-1.716330872E0,-4.622387695E0,-2.461631012E0,4.669011708E0,1.041369677E0,-1.792657852E0,-8.078641891E-1
4.682837708E0,-1.633253632E0,-5.258265381E0,-3.333867188E0,4.679066708E0,1.232005954E0,-1.777226686E0,-7.545831203E-1
4.692892708E0,-1.382075958E0,-6.045178986E0,-4.252057800E0,4.689122708E0,1.335567951E0,-1.806993246E0,-7.096359134E-1
4.702948708E0,-1.148112488E0,-7.309000854E0,-4.512366486E0,4.699177708E0,1.407658815E0,-1.765194178E0,-6.548591852E-1
4.713004708E0,-9.898915100E-1,-8.356073456E0,-3.912563782E0,4.709233708E0,1.477745175E0,-1.471291661E0,-5.683204532E-1
4.723059708E0,-9.892927551E-1,-8.910670166E0,-3.427272949E0,4.719288708E0,1.502343178E0,-9.918808937E-1,-4.854915738E-1
4.733115708E0,-1.310524750E0,-9.332343292E0,-3.503614197E0,4.729344708E0,1.436901808E0,-5.448740721E-1,-4.210664034E-1
4.743170708E0,-1.959874420E0,-1.013078293E1,-4.547094269E0,4.739399708E0,1.231158733E0,-3.036012352E-1,-3.736709356E-1
4.753226708E0,-3.008892975E0,-1.148307083E1,-5.748645630E0,4.749455708E0,8.825819492E-1,-3.123303354E-1,-2.819270492E-1
4.763281708E0,-3.641327820E0,-1.189441544E1,-6.865473175E0,4.759510708E0,5.510479212E-1,-4.300692379E-1,-1.299172640E-1
4.773337708E0,-3.457510071E0,-1.160057648E1,-9.177714844E0,4.769566708E0,2.321625948E-1,-8.552531004E-1,1.651360653E-2
4.783392708E0,-2.728825378E0,-1.168065994E1,-1.110525650E1,4.779621708E0,-4.954365641E-2,-1.453248620E0,1.575548798E-1
4.793448708E0,-1.588197327E0,-1.171942932E1,-1.117501144E1,4.789677708E0,-2.009372860E-1,-1.794898868E0,2.705754936E-1
4.803503708E0,-8.252339172E-1,-1.159204422E1,-1.006970993E1,4.799732708E0,-2.101571411E-1,-1.743280172E0,2.625761628E-1
4.813559708E0,-5.948629761E-1,-1.187211182E1,-8.142617340E0,4.809788708E0,-1.396375746E-1,-1.355521679E0,1.467646211E-1
4.823614708E0,-4.092489624E-1,-1.209993805E1,-5.941444702E0,4.819843708E0,-5.345314741E-2,-8.359591365E-1,-5.319268629E-2
4.833670708E0,-6.469546509E-1,-1.228001358E1,-5.550308075E0,4.829899708E0,-7.782655209E-2,-6.781693101E-1,-2.539428174E-1
4.843725708E0,-1.335672455E0,-1.218121902E1,-6.631809082E0,4.839954708E0,-2.617996037E-1,-9.639448524E-1,-3.715051115E-1
4.853781708E0,-1.536704407E0,-1.126422592E1,-8.104895782E0,4.850010708E0,-5.967870951E-1,-1.424221873E0,-4.481446743E-1
4.863836708E0,-9.846524048E-1,-9.783654785E0,-8.330476685E0,4.860066708E0,-7.975079417E-1,-1.548723102E0,-4.918609858E-1
4.873892708E0,-9.343569946E-1,-8.247100067E0,-6.703210602E0,4.870121708E0,-6.152672172E-1,-1.020787358E0,-4.389427304E-1
4.883947708E0,-2.508034515E0,-8.722810822E0,-5.850134583E0,4.880177708E0,-2.765232921E-1,-3.274552524E-1,-3.032434881E-1
4.894003708E0,-4.070934448E0,-1.087249054E1,-5.882617035E0,4.890232708E0,7.299008965E-2,8.817683160E-2,-4.609523341E-2
4.904058708E0,-5.803731079E0,-1.387853943E1,-3.898043976E0,4.900288708E0,4.992505908E-1,6.012910008E-1,3.047626615E-1
4.914114708E0,-7.801476746E0,-1.856933487E1,-1.293160858E0,4.910343708E0,8.377414346E-1,1.265767694E0,7.411039472E-1
4.924169708E0,-9.289382629E0,-2.279759216E1,1.348545685E0,4.920399708E0,8.047536612E-1,2.022129774E0,1.041585803E0
4.934225708E0,-9.774523773E0,-2.186293579E1,2.248773651E0,4.930454708E0,3.761717975E-1,2.351343632E0,8.697171211E-1
4.944280708E0,-7.521109772E0,-1.576716202E1,4.391867065E-1,4.940510708E0,-2.930073440E-1,1.800120592E0,6.613242626E-1
4.954336708E0,-2.566263428E0,-8.024662628E0,2.225122833E0,4.950565708E0,-6.406645775E-1,1.414350748E0,5.862304568E-1
4.964391708E0,8.161029053E-1,-3.793561249E0,6.678811340E0,4.960621708E0,-4.154679477E-1,1.620702624E0,3.348978162E-1
4.974447708E0,1.971400452E0,-2.543660431E0,7.639812927E0,4.970676708E0,-4.777173698E-2,1.888648868E0,2.054284811E-1
4.984502708E0,9.243278503E-1,-2.028132477E0,6.150709534E0,4.980732708E0,2.134886235E-1,1.765165448E0,3.033089638E-1
4.994558708E0,-8.795709229E-1,-1.439855804E0,4.521198120E0,4.990787708E0,2.727043033E-1,1.801814914E0,3.926106393E-1
5.004614708E0,-1.492546234E0,-1.780098267E0,2.630180511E0,5.000843708E0,4.449959099E-1,1.863256693E0,4.718841314E-1
5.014669708E0,-1.483864288E0,-2.783012695E0,1.433718567E0,5.010898708E0,8.308925033E-1,1.918939114E0,6.114319563E-1
5.024725708E0,-1.537153473E0,-5.141358490E0,1.850302277E0,5.020954708E0,1.318132997E0,2.149630308E0,8.461781740E-1
5.034780708E0,-1.620380402E0,-8.208630066E0,2.926264801E0,5.031009708E0,1.697767496E0,2.707403898E0,1.163337231E0
5.044836708E0,-1.498683472E0,-1.080213684E1,3.170407104E0,5.041065708E0,1.903642893E0,3.336887121E0,1.429889321E0
5.054891708E0,-1.610351257E0,-1.138921600E1,3.143463135E0,5.051120708E0,1.879866600E0,3.846642494E0,1.582679749E0
5.064946125E0,-1.533860321E0,-1.104927292E1,3.118465118E0,5.061175125E0,1.641953826E0,4.106576920E0,1.691579819E0
5.075001125E0,-1.403631134E0,-1.193797485E1,2.290686493E0,5.071230125E0,1.297648549E0,3.924267530E0,1.891834259E0
5.085057125E0,-9.599537659E-1,-1.342049194E1,1.327738953E-1,5.081286125E0,1.069258690E0,2.920101166E0,1.997816443E0
5.095112125E0,3.113525391E-2,-1.535027893E1,-2.157313843E0,5.091341125E0,1.468642473E0,1.476175070E0,1.788138986E0
5.105168125E0,1.456321564E0,-1.561762299E1,-3.088078308E0,5.101397125E0,2.108953953E0,-5.945966113E-3,1.061505318E0
5.115223125E0,3.364852753E0,-1.213421677E1,-2.962339783E0,5.111452125E0,2.688845396E0,-1.129348516E0,1.672925502E-1
5.125279125E0,4.208199005E0,-8.523425446E0,-1.613644409E0,5.121508125E0,3.055791855E0,-1.471015811E0,-4.403393269E-1
5.135334125E0,3.926185455E0,-7.370522919E0,-2.664459229E-2,5.131563125E0,2.921557665E0,-8.321039081E-1,-6.525560617E-1
5.145390125E0,3.290307770E0,-6.606212311E0,3.812571716E-1,5.141619125E0,2.318942070E0,3.308735192E-1,-6.523203850E-1
5.155445125E0,2.423759766E0,-6.371949463E0,-7.512876892E-1,5.151674125E0,1.585644960E0,1.235147953E0,-5.974197388E-1
5.165501125E0,9.572593689E-1,-7.509883118E0,-1.989063721E0,5.161730125E0,1.109598279E0,1.532203078E0,-5.259620547E-1
5.175556125E0,-3.565585327E-1,-8.553363190E0,-2.455793152E0,5.171786125E0,9.596327543E-1,1.407355309E0,-4.411478341E-1
5.185612125E0,-1.232836304E0,-9.068292389E0,-2.186054077E0,5.181841125E0,9.288718700E-1,1.126199245E0,-3.690227568E-1
5.195667125E0,-1.750010834E0,-9.361981659E0,-1.662442932E0,5.191897125E0,8.933247328E-1,8.071814179E-1,-3.083170950E-1
5.205723125E0,-1.408570862E0,-9.464967499E0,-1.519639893E0,5.201952125E0,8.851757050E-1,4.349807501E-1,-2.788937092E-1
5.215778125E0,-5.831872559E-1,-9.652677155E0,-1.403631134E0,5.212008125E0,9.091668725E-1,4.244225845E-2,-2.635112703E-1
5.225834125E0,-8.470884705E-1,-9.420210571E0,-5.680686951E-1,5.222063125E0,9.626231194E-1,1.216723695E-1,-1.858052909E-1
5.235889125E0,-6.987469482E-1,-9.124425659E0,-1.104702759E0,5.232119125E0,1.014540434E0,3.003019691E-1,-1.469080895E-1
5.245945125E0,-3.332070923E-1,-8.954678650E0,-1.808090057E0,5.242174125E0,1.005057931E0,4.894532263E-1,-1.044975221E-1
5.256000125E0,4.086502075E-2,-8.875643005E0,-2.060465240E0,5.252230125E0,8.819515109E-1,6.088267565E-1,-2.766631311E-3
5.266056125E0,2.659968567E-1,-8.589438171E0,-2.199376373E0,5.262285125E0,7.735326290E-1,4.621683657E-1,2.286336385E-2
5.276111125E0,2.480342102E-1,-8.568781128E0,-1.594633942E0,5.272341125E0,7.258329988E-1,2.569367886E-1,3.576343507E-2
5.286167125E0,2.606080627E-1,-8.593629456E0,-6.129753113E-1,5.282396125E0,7.258353829E-1,1.254269630E-1,9.975386411E-2
5.296222125E0,1.398092651E-1,-8.553063812E0,1.767823792E-1,5.292452125E0,7.858594060E-1,6.375981122E-2,1.603616923E-1
5.306278125E0,-1.302291870E-2,-8.520581360E0,5.879772949E-1,5.302507125E0,8.721231818E-1,6.324688345E-2,2.048412710E-1
5.316334125E0,-1.134640503E-1,-8.411907349E0,6.548881531E-1,5.312563125E0,9.508714676E-1,1.074972302E-1,2.386156172E-1
5.326389125E0,-1.612147522E-1,-8.269703064E0,6.412664795E-1,5.322618125E0,1.058745146E0,1.642119139E-1,2.450580597E-1
5.336445125E0,-1.889071655E-1,-8.315956879E0,5.941145325E-1,5.332674125E0,1.159323454E0,2.529974580E-1,2.497931719E-1
5.346500125E0,-3.216810608E-1,-8.581504669E0,4.275109863E-1,5.342729125E0,1.212912798E0,3.295137882E-1,2.529692650E-1
5.356556125E0,-4.523593140E-1,-8.974736938E0,9.086105347E-2,5.352785125E0,1.238269567E0,3.359818459E-1,2.548605204E-1
5.366611125E0,-3.686833191E-1,-9.427245941E0,-2.704875183E-1,5.362840125E0,1.231420517E0,2.910644412E-1,2.599929571E-1
5.376667125E0,-1.505868530E-1,-9.935588837E0,-3.935316467E-1,5.372896125E0,1.153825760E0,2.646782100E-1,2.750744522E-1
5.386722125E0,8.472381592E-2,-1.014709900E1,-3.635939026E-1,5.382951125E0,1.001841187E0,2.670550942E-1,2.960478961E-1
5.396778125E0,2.116598511E-1,-1.017464172E1,-2.718347168E-1,5.393007125E0,8.078724146E-1,2.497819662E-1,3.253421485E-1
5.406833125E0,-5.029541016E-2,-1.046698380E1,-3.728746033E-1,5.403062125E0,6.519541740E-1,1.450105458E-1,3.005436063E-1
5.416889125E0,-4.085005188E-1,-1.130164810E1,-6.550378418E-1,5.413118125E0,5.873448849E-1,8.848689497E-3,2.144966871E-1
5.426944125E0,-3.311114502E-1,-1.227477448E1,-6.634204102E-1,5.423173125E0,5.526878834E-1,-5.005297437E-2,1.308595836E-1
5.437000125E0,1.371148682E-1,-1.285092636E1,-2.007325745E-1,5.433229125E0,4.891822636E-1,6.470490247E-3,9.709355235E-2
5.447055125E0,9.521699524E-1,-1.291484344E1,3.378474426E-1,5.443284125E0,3.686901927E-1,1.340255141E-1,8.784759045E-2
5.457111125E0,1.960772552E0,-1.265872604E1,4.577481079E-1,5.453340125E0,2.502756715E-1,2.837074101E-1,1.030806080E-1
5.467166125E0,2.918630676E0,-1.245664627E1,-7.664062500E-2,5.463396125E0,2.106701881E-1,4.388242960E-1,1.273044646E-1
5.477222125E0,3.497926025E0,-1.210697342E1,-1.047222290E0,5.473451125E0,2.523845732E-1,6.265514493E-1,9.654456377E-2
5.487277125E0,3.802991638E0,-1.189022415E1,-1.898951111E0,5.483507125E0,2.907492518E-1,8.105953336E-1,-1.625601947E-2
5.497333125E0,4.012855225E0,-1.211939758E1,-2.491269379E0,5.493562125E0,2.436639369E-1,9.181458950E-1,-1.725918353E-1
5.507388125E0,4.073329468E0,-1.296873138E1,-2.873424683E0,5.503618125E0,1.016835496E-2,8.595777154E-1,-3.309436440E-1
5.517444125E0,3.971690826E0,-1.386312149E1,-3.206033020E0,5.513673125E0,-4.100535214E-1,6.052625179E-1,-4.994628429E-1
5.527499125E0,3.488495636E0,-1.432027084E1,-3.277584229E0,5.523729125E0,-8.162135482E-1,2.212655693E-1,-6.535123587E-1
5.537555125E0,3.026556244E0,-1.440080338E1,-2.682421875E0,5.533784125E0,-1.087471247E0,-1.254567951E-1,-7.573661208E-1
5.547610125E0,2.756667480E0,-1.427431641E1,-1.272354126E0,5.543840125E0,-1.439024210E0,-2.844659090E-1,-8.529965281E-1
5.557666125E0,2.078128510E0,-1.391281815E1,4.495152283E-1,5.553895125E0,-1.823181510E0,-2.698734701E-1,-8.968676925E-1
5.567721125E0,5.837860107E-1,-1.252340744E1,1.109193420E0,5.563951125E0,-2.032062292E0,-2.395019680E-1,-1.017666578E0
5.577777125E0,-1.176553345E0,-1.071636520E1,7.997868347E-1,5.574006125E0,-1.965621114E0,-3.803100288E-1,-1.138948083E0
5.587832125E0,-3.412603455E0,-9.599537659E0,5.206173706E-1,5.584062125E0,-1.913699150E0,-4.158888161E-1,-1.018545747E0
5.597888125E0,-5.078489227E0,-9.478738861E0,-5.957611084E-2,5.594117125E0,-2.183134556E0,-2.947396636E-1,-7.116698623E-1
5.607943125E0,-5.781128082E0,-9.949360199E0,-5.306465149E-1,5.604173125E0,-2.740079880E0,-1.982157975E-1,-2.958934307E-1
5.617999125E0,-5.819598083E0,-1.031205597E1,8.416996765E-1,5.614228125E0,-3.195777655E0,-7.190499455E-2,5.201021954E-2
5.628055125E0,-5.984255676E0,-1.137304962E1,2.714754639E0,5.624284125E0,-3.399477959E0,2.376595140E-1,2.646133006E-1
5.638110125E0,-6.621181183E0,-1.330717758E1,3.604055328E0,5.634339125E0,-3.377129793E0,6.816279888E-1,3.897742629E-1
5.648166125E0,-8.375832367E0,-1.543215866E1,3.498075714E0,5.644395125E0,-3.164541006E0,1.150063872E0,4.495955110E-1
5.658221125E0,-1.266426453E1,-1.531270706E1,1.881886597E0,5.654450125E0,-2.870881319E0,1.578739524E0,-7.263002545E-2
5.668277125E0,-1.366238892E1,-1.576177322E1,-2.966381378E0,5.664506125E0,-2.441794872E0,1.316220045E0,-4.479581118E-1
5.678332125E0,-1.072549622E1,-1.552496567E1,-4.978048096E0,5.674561125E0,-2.072971582E0,9.454584718E-1,-3.404597342E-1
5.688388125E0,-6.830146637E0,-1.343426331E1,-3.652404785E0,5.684617125E0,-2.007186651E0,1.082821727E0,1.260723826E-2
5.698443125E0,-3.837719421E0,-1.136541550E1,-2.738405457E0,5.694672125E0,-2.176056147E0,1.452337742E0,1.833506525E-1
5.708499125E0,-1.835632782E0,-9.886640625E0,-1.243763580E0,5.704728125E0,-2.189814568E0,1.941702843E0,2.438163906E-1
5.718554125E0,-2.706372070E-1,-8.635991364E0,-7.018904114E-1,5.714783125E0,-1.735887170E0,1.876049519E0,1.033543423E-1
5.728610125E0,2.956352234E-1,-8.487649841E0,-2.893782349E0,5.724839125E0,-7.118372321E-1,1.485356688E-1,-2.222772837E-1
5.738665125E0,2.146985321E0,-7.918982391E0,-3.776646423E0,5.734894125E0,-4.842414260E-1,-1.720610261E0,-9.048964977E-1
5.748721125E0,3.430117035E0,-7.611072693E0,-1.442999268E-1,5.744950125E0,-1.269372702E0,-2.205288887E0,-1.412389755E0
5.758776125E0,4.333189087E0,-7.031028900E0,2.531086578E0,5.755005125E0,-2.159409046E0,-2.031687021E0,-1.638426900E0
5.768832125E0,4.299658813E0,-6.716532898E0,2.564467163E0,5.765061125E0,-2.549921036E0,-1.794247866E0,-1.721809983E0
5.778887125E0,3.575764160E0,-6.651867371E0,1.018631744E0,5.775117125E0,-2.564935923E0,-1.886672139E0,-1.548683286E0
5.788943125E0,2.870131531E0,-7.078629913E0,-3.492237854E-1,5.785172125E0,-2.444301128E0,-2.246114016E0,-1.103127718E0
5.798998125E0,2.494712219E0,-6.861132202E0,-1.202150116E0,5.795228125E0,-2.353265762E0,-2.775798082E0,-5.590859056E-1
5.809054125E0,2.013612671E0,-6.126609650E0,-5.536985779E-1,5.805283125E0,-2.178257227E0,-2.921619654E0,-1.905459762E-1
5.819109125E0,5.960604858E-1,-5.312003632E0,2.574645996E-2,5.815339125E0,-1.842416883E0,-2.609488487E0,-1.756023020E-1
5.829165125E0,-4.947212219E-1,-5.259612579E0,-1.315763855E-1,5.825394125E0,-1.485950828E0,-2.352003574E0,-3.056125045E-1
5.839220125E0,-1.373094635E0,-5.209017792E0,-3.086581421E-1,5.835450125E0,-1.157666802E0,-2.171617031E0,-5.134118199E-1
5.849276125E0,-2.076032867E0,-5.346432037E0,-7.366181946E-1,5.845505125E0,-8.367863297E-1,-2.082185745E0,-7.214685678E-1
5.859331125E0,-2.285447388E0,-5.198838959E0,-1.058299255E0,5.855561125E0,-5.312361121E-1,-2.147501707E0,-8.766680956E-1
5.869387125E0,-2.124981079E0,-4.825215912E0,-8.318202209E-1,5.865616125E0,-2.191567868E-1,-2.226234198E0,-9.800911546E-1
5.879442125E0,-1.876348114E0,-4.234394531E0,-3.067121887E-1,5.875672125E0,8.697428554E-2,-2.168147326E0,-1.020827770E0
5.889498125E0,-1.701362000E0,-3.608096924E0,-6.466552734E-2,5.885727125E0,3.897607923E-1,-2.025972128E0,-1.040848017E0
5.899553125E0,-1.693727875E0,-3.200494537E0,1.330732727E-1,5.895783125E0,6.489488482E-1,-1.792681098E0,-1.030627966E0
5.909609125E0,-1.765578461E0,-3.112178192E0,-3.703298950E-1,5.905838125E0,8.589622974E-1,-1.551483393E0,-9.817472696E-1
5.919665125E0,-1.963766327E0,-3.305725708E0,-1.492995300E0,5.915894125E0,1.082979918E0,-1.398700953E0,-9.089013338E-1
5.929720125E0,-2.098186798E0,-3.679797821E0,-2.948119354E0,5.925949125E0,1.350789785E0,-1.371052027E0,-8.431057930E-1
5.939776125E0,-1.999990997E0,-4.432881775E0,-4.209695892E0,5.936005125E0,1.617100239E0,-1.421568513E0,-7.587854266E-1
5.949831125E0,-1.921554108E0,-5.816155243E0,-4.577780457E0,5.946060125E0,1.852092981E0,-1.338986516E0,-6.579858661E-1
5.959887125E0,-1.486109619E0,-6.964417419E0,-4.962480469E0,5.956116125E0,1.998483419E0,-1.225468159E0,-5.812939405E-1
5.969942125E0,-1.344354401E0,-8.276738434E0,-4.593348083E0,5.966171125E0,2.021807194E0,-1.015924215E0,-4.346131384E-1
5.979998125E0,-1.487756195E0,-9.259145508E0,-4.125570831E0,5.976227125E0,1.919035077E0,-5.987901092E-1,-3.718070090E-1
5.990053125E0,-1.896705780E0,-1.089733887E1,-4.692591705E0,5.986282125E0,1.662900209E0,-1.505364478E-1,-4.184642434E-1
6.000109125E0,-2.469714203E0,-1.308803329E1,-6.702013092E0,5.996338125E0,1.285564303E0,8.407277614E-2,-3.914386332E-1
6.010164125E0,-2.942580872E0,-1.508727585E1,-1.080393311E1,6.006393125E0,7.910516262E-1,-1.814166754E-1,-2.003807724E-1
6.020220125E0,-2.898722076E0,-1.645782578E1,-1.467757782E1,6.016449125E0,2.560666502E-1,-8.369210958E-1,7.773485780E-2
6.030275125E0,-2.321073303E0,-1.622850266E1,-1.565010544E1,6.026504125E0,-1.782062352E-1,-1.323027849E0,2.975092828E-1
6.040331125E0,-2.069596252E0,-1.430200882E1,-1.394305527E1,6.036560125E0,-4.480029047E-1,-1.330828905E0,3.640889823E-1
6.050386125E0,-2.224075012E0,-1.277952484E1,-1.039812698E1,6.046615125E0,-4.871649444E-1,-9.933077097E-1,3.441810608E-1
6.060443583E0,-2.174677734E0,-1.136272110E1,-6.201154633E0,6.056672583E0,-4.077001810E-1,-5.743811131E-1,1.806381196E-1
6.070498583E0,-2.175276489E0,-1.012554382E1,-5.008883972E0,6.066728583E0,-4.547377229E-1,-6.517882943E-1,1.338387933E-2
6.080554583E0,-2.049687653E0,-9.419162750E0,-6.455026703E0,6.076783583E0,-7.510626912E-1,-1.243415594E0,-4.409965873E-2
6.090609583E0,-1.413660278E0,-8.578361206E0,-7.721243591E0,6.086839583E0,-1.103683829E0,-1.813352227E0,-9.179394692E-2
6.100665583E0,-3.381468201E-1,-7.111112366E0,-6.809938660E0,6.096894583E0,-1.115430474E0,-1.791456819E0,-1.364120692E-1
6.110720583E0,-3.576063538E-1,-5.761967926E0,-4.591551819E0,6.106950583E0,-7.353343368E-1,-1.112435937E0,-1.194605231E-1
6.120776583E0,-2.241438904E0,-7.425458679E0,-3.939358063E0,6.117005583E0,-3.196047544E-1,-4.127621055E-1,-3.499316797E-2
6.130831583E0,-4.096830597E0,-1.058059753E1,-2.169139252E0,6.127061583E0,1.822021753E-1,4.146181047E-1,1.180144921E-1
6.140887583E0,-6.138884125E0,-1.396131729E1,1.367107086E0,6.137116583E0,8.363857865E-1,1.604984045E0,3.607347310E-1
6.150942583E0,-8.088879089E0,-1.815843933E1,3.207679596E0,6.147172583E0,1.336830258E0,2.693281889E0,6.430298090E-1
6.160998583E0,-9.918075256E0,-2.096285751E1,3.476969604E0,6.157227583E0,1.131221533E0,3.467544079E0,7.729275823E-1
6.171053583E0,-9.606722717E0,-1.787792267E1,1.483415222E0,6.167283583E0,2.960062921E-1,3.201156139E0,5.421436429E-1
6.181109583E0,-5.165907440E0,-1.049737061E1,1.823208618E0,6.177338583E0,-1.107439399E-1,2.384296417E0,3.306539357E-1
6.191164583E0,-1.223555603E0,-6.851402435E0,3.640279999E0,6.187394583E0,4.530451447E-2,1.783484101E0,2.973348498E-1
6.201220583E0,5.804928589E-1,-5.276078339E0,4.032913513E0,6.197449583E0,2.959393859E-1,1.407712698E0,3.399765790E-1
6.211276583E0,1.155896301E0,-4.680915985E0,4.285438385E0,6.207505583E0,2.903685868E-1,1.503853321E0,5.117334127E-1
6.221331583E0,6.683601379E-1,-4.651427307E0,3.166215820E0,6.217560583E0,1.877375096E-1,1.614125013E0,6.714394689E-1
6.231387583E0,2.736309814E-1,-5.197042694E0,3.001408539E0,6.227616583E0,3.243486285E-1,1.796625853E0,7.194914222E-1
6.241442583E0,4.745132446E-2,-6.587501221E0,3.112776947E0,6.237671583E0,6.435518861E-1,2.130388975E0,7.680974007E-1
6.251498583E0,-2.263293457E-1,-8.072113953E0,3.544778595E0,6.247727583E0,1.071115732E0,2.666625023E0,8.440920115E-1
6.261553583E0,-9.192384338E-1,-9.709109802E0,4.129163361E0,6.257782583E0,1.535940766E0,3.181176186E0,9.404208660E-1
6.271609583E0,-1.906734924E0,-1.132919083E1,4.596940613E0,6.267838583E0,1.854560852E0,3.517638922E0,1.123387933E0
6.281664583E0,-2.071242828E0,-1.152722900E1,4.144281921E0,6.277893583E0,1.936727047E0,3.670044184E0,1.281788588E0
6.291720583E0,-1.774410095E0,-1.148546585E1,2.896626434E0,6.287949583E0,1.979488969E0,3.519603014E0,1.419362664E0
6.301775583E0,-1.120120697E0,-1.222028778E1,1.525028687E0,6.298004583E0,1.922095776E0,2.976007938E0,1.589188218E0
6.311831583E0,-1.615141296E-1,-1.411804138E1,7.259902954E-2,6.308060583E0,1.735546947E0,2.006364584E0,1.648041606E0
6.321886583E0,9.222322083E-1,-1.466275864E1,-1.142274628E0,6.318115583E0,1.688539505E0,8.366340995E-1,1.124255896E0
6.331942583E0,2.512225800E0,-1.159698395E1,-2.209405518E0,6.328171583E0,1.998604178E0,-2.508114874E-1,4.025741816E-1
6.341997583E0,3.448678436E0,-8.251740417E0,-2.202370148E0,6.338226583E0,2.563525438E0,-8.956353068E-1,-1.215839833E-1
6.352053583E0,2.579885101E0,-7.297474823E0,-4.499642944E-1,6.348282583E0,2.874828815E0,-5.753872395E-1,-4.036263227E-1
6.362108583E0,1.050515442E0,-6.977440338E0,8.322692871E-1,6.358338583E0,2.681347609E0,4.857337177E-1,-5.356647968E-1
6.372164583E0,2.374063110E-1,-6.898704071E0,7.135661316E-1,6.368393583E0,2.048889160E0,1.504150987E0,-4.587396383E-1
6.382219583E0,-3.625460815E-1,-7.051386566E0,-2.797682190E-1,6.378449583E0,1.411295891E0,1.950230718E0,-2.870552540E-1
6.392275583E0,-8.581654358E-1,-7.629334717E0,-1.181792450E0,6.388504583E0,1.088608027E0,1.811400890E0,-2.074392289E-1
6.402330583E0,-1.309776306E0,-8.550219727E0,-1.459614716E0,6.398560583E0,1.029627800E0,1.369831681E0,-1.951711178E-1
6.412386583E0,-1.307830353E0,-9.050180054E0,-1.030157776E0,6.408615583E0,1.040322781E0,9.414077401E-1,-1.775268763E-1
6.422441583E0,-6.574328613E-1,-9.029822388E0,-2.186952209E-1,6.418671583E0,1.021855712E0,6.962488294E-1,-1.086135879E-1
6.432497583E0,-7.664062500E-2,-9.126521301E0,5.420228577E-1,6.428726583E0,1.023294568E0,7.092171311E-1,-1.199834198E-1
6.442552583E0,-9.415420532E-2,-9.509724426E0,5.745053101E-1,6.438782583E0,1.146370173E0,9.875363708E-1,-1.936062425E-1
6.452608583E0,2.559677124E-1,-1.040785675E1,-1.053808594E-1,6.448837583E0,1.244752169E0,1.232426167E0,-1.630629748E-1
6.462663583E0,3.616479492E-1,-1.069974976E1,-1.015188904E0,6.458893583E0,1.263696074E0,1.406743526E0,-7.399218529E-2
6.472719583E0,6.001020813E-1,-1.008692413E1,-1.461560669E0,6.468948583E0,1.252277851E0,1.584095120E0,2.277016407E-3
6.482775583E0,8.985813904E-1,-9.982441406E0,-2.213746490E0,6.479004583E0,1.198280454E0,1.642416596E0,8.914954215E-2
6.492830583E0,1.192120972E0,-9.214538269E0,-3.152743835E0,6.489059583E0,1.091497302E0,1.466466308E0,1.968533546E-1
6.502886583E0,1.362766113E0,-8.848998413E0,-3.565285950E0,6.499115583E0,9.652017355E-1,1.076223373E0,2.622666359E-1
6.512941583E0,1.366358643E0,-8.584348755E0,-3.013383636E0,6.509170583E0,8.396765590E-1,6.868758798E-1,3.193285763E-1
6.522997583E0,1.162033539E0,-8.537346497E0,-1.857337646E0,6.519226583E0,7.498971820E-1,4.681593180E-1,3.578823209E-1
6.533052583E0,8.593629456E-1,-8.478668518E0,-1.126856689E0,6.529281583E0,7.203621864E-1,3.457069099E-1,3.841299117E-1
6.543108583E0,5.095404053E-1,-8.375532990E0,-8.343649292E-1,6.539337583E0,7.473160625E-1,2.332751602E-1,3.838657141E-1
6.553163583E0,1.474433899E-1,-8.375383301E0,-7.408094788E-1,6.549392583E0,7.987974286E-1,8.963528275E-2,3.566172719E-1
6.563219583E0,-2.059716797E-1,-8.470435638E0,-7.152127075E-1,6.559448583E0,8.567075133E-1,-4.918688536E-2,3.178025484E-1
6.573274583E0,-3.647914124E-1,-8.710536346E0,-5.902226257E-1,6.569503583E0,9.172097445E-1,-1.024237424E-1,2.924290299E-1
6.583330583E0,-2.215393066E-2,-9.325008545E0,-3.861968994E-1,6.579559583E0,9.455981255E-1,-5.643273517E-2,3.184769154E-1
6.593385583E0,5.987548828E-1,-9.769434357E0,5.703140259E-2,6.589614583E0,8.207632303E-1,6.912945211E-2,3.587263227E-1
6.603441583E0,1.058898010E0,-9.539662170E0,6.935078430E-1,6.599670583E0,5.530246496E-1,2.269590348E-1,3.805500567E-1
6.613496583E0,1.073567505E0,-9.239685974E0,9.690847778E-1,6.609725583E0,3.229410648E-1,2.681134045E-1,3.439989686E-1
6.623552583E0,7.168592834E-1,-9.342073059E0,9.452842712E-1,6.619781583E0,2.473848611E-1,2.029018700E-1,2.457819432E-1
6.633607583E0,1.790277100E-1,-1.003722748E1,8.678952026E-1,6.629837583E0,3.116341531E-1,1.316979975E-1,1.074501649E-1
6.643663583E0,-7.978408813E-2,-1.139759857E1,7.204518127E-1,6.639892583E0,4.477609992E-1,1.186073795E-1,-2.558632987E-3
6.653718583E0,1.481918335E-2,-1.245335312E1,6.734495544E-1,6.649948583E0,5.530698299E-1,1.607905179E-1,-5.310330167E-2
6.663774583E0,3.132984924E-1,-1.297516800E1,6.704557800E-1,6.660003583E0,5.665252209E-1,2.227130383E-1,-5.032235757E-2
6.673829583E0,7.972421265E-1,-1.315120193E1,3.365002441E-1,6.670059583E0,5.372434855E-1,2.637304962E-1,-6.297905929E-3
6.683885583E0,1.268462219E0,-1.295750473E1,-2.761756897E-1,6.680114583E0,5.442488194E-1,2.878999710E-1,3.758134320E-2
6.693940583E0,1.608704681E0,-1.258912079E1,-9.740245056E-1,6.690170583E0,5.689057112E-1,3.478764892E-1,3.940587491E-2
6.703996583E0,1.751208344E0,-1.223615479E1,-1.395847321E0,6.700225583E0,5.949101448E-1,5.102421045E-1,1.412324421E-2
6.714051583E0,1.709744568E0,-1.195833252E1,-1.572629700E0,6.710281583E0,5.696787834E-1,7.709168196E-1,-2.115698159E-2
6.724107583E0,1.588197327E0,-1.196432007E1,-1.827399902E0,6.720336583E0,4.850771427E-1,1.043238521E0,-4.011351243E-2
6.734162583E0,1.668131104E0,-1.252056335E1,-2.469414825E0,6.730392583E0,3.179390430E-1,1.149099708E0,-9.620317258E-3
6.744218583E0,2.137105865E0,-1.328667023E1,-3.395688629E0,6.740447583E0,-3.578577936E-2,9.368432164E-1,-8.458180819E-4
6.754273583E0,2.576442261E0,-1.402268967E1,-3.773802338E0,6.750503583E0,-4.938161969E-1,4.684589207E-1,5.145762116E-3
6.764329583E0,2.849175110E0,-1.447669556E1,-3.657643890E0,6.760558583E0,-8.922408819E-1,-9.035738558E-2,-2.767732926E-2
6.774385583E0,3.401376801E0,-1.418165909E1,-2.761158142E0,6.770614583E0,-1.173652053E0,-5.332661271E-1,-1.404446214E-1
6.784440583E0,3.682641907E0,-1.369232666E1,-1.856589203E0,6.780669583E0,-1.437937140E0,-8.698217273E-1,-2.862934470E-1
6.794496583E0,3.079396362E0,-1.294523026E1,-1.012644196E0,6.790725583E0,-1.715492368E0,-1.078619361E0,-4.746811986E-1
6.804551583E0,1.709894257E0,-1.192046127E1,-3.302133179E-1,6.800780583E0,-1.985230327E0,-1.158655882E0,-6.516530514E-1
6.814607583E0,-5.298980713E-2,-1.080019089E1,-1.806742859E-1,6.810836583E0,-2.240110397E0,-1.186011672E0,-7.072942257E-1
6.824662583E0,-2.127076721E0,-9.588760071E0,2.540217590E-1,6.820891583E0,-2.541749716E0,-1.047993779E0,-5.965163708E-1
6.834718583E0,-3.238365784E0,-8.610394592E0,1.067430267E0,6.830947583E0,-2.754510403E0,-9.332244396E-1,-4.308627248E-1
6.844773583E0,-3.800147552E0,-9.038654022E0,2.198927307E0,6.841002583E0,-2.921188116E0,-8.483026624E-1,-2.547803819E-1
6.854829583E0,-3.990102539E0,-1.020921982E1,3.849245453E0,6.851058583E0,-3.118885517E0,-4.941403270E-1,-1.966821998E-1
6.864884583E0,-4.025878143E0,-1.127470413E1,5.322930908E0,6.861113583E0,-3.174212217E0,1.538441479E-1,-2.042058706E-1
6.874940583E0,-4.653822327E0,-1.314222061E1,6.677164764E0,6.871169583E0,-3.047955513E0,1.191548944E0,-1.342875063E-1
6.884995583E0,-5.375321960E0,-1.497665588E1,6.397995300E0,6.881224583E0,-2.811255693E0,2.349592447E0,5.518747494E-2
6.895051583E0,-6.210884399E0,-1.605815689E1,3.118614807E0,6.891280583E0,-2.556522846E0,3.128081322E0,2.977793515E-1
6.905106583E0,-7.530689850E0,-1.543066177E1,-3.309018860E0,6.901335583E0,-2.285964727E0,2.990814209E0,3.625591695E-1
6.915162583E0,-9.096134491E0,-1.251008514E1,-6.963818665E0,6.911391583E0,-2.029647589E0,2.399312496E0,-2.428087443E-1
6.925217583E0,-7.161108398E0,-1.171478897E1,-6.863227844E0,6.921447583E0,-1.875659347E0,1.898941517E0,-7.815561891E-1
6.935273583E0,-4.103865967E0,-1.244766495E1,-5.026846619E0,6.931502583E0,-1.858472824E0,1.663358808E0,-6.755916476E-1
6.945328583E0,-3.143612823E0,-1.109822113E1,-3.004552002E0,6.941558583E0,-1.629527688E0,1.272836208E0,-4.140118659E-1
6.955384583E0,-1.303788757E0,-9.729916534E0,-6.891968079E0,6.951613583E0,-6.705788374E-1,-2.009122372E0,-8.503646851E-1
6.965439583E0,9.068142700E-1,-8.959019623E0,-2.487078094E0,6.961669583E0,-1.039303064E0,-3.425114155E0,-1.431560278E0
6.975495583E0,2.531535645E0,-8.408314819E0,2.896626434E0,6.971724583E0,-1.894456029E0,-3.011273384E0,-1.685174227E0
6.985550583E0,3.316952362E0,-8.165968781E0,3.043920135E0,6.981780583E0,-2.253524542E0,-2.301310062E0,-1.845959544E0
6.995606583E0,3.451971588E0,-7.540868683E0,1.807640991E0,6.991835583E0,-2.375481129E0,-1.914954185E0,-1.884495020E0
7.005661583E0,3.251538391E0,-6.698121185E0,8.669970703E-1,7.001891583E0,-2.505489826E0,-1.869317770E0,-1.671569943E0
7.015717583E0,2.959795074E0,-6.689289551E0,-5.355862427E-1,7.011946583E0,-2.578554392E0,-2.380888462E0,-1.301371694E0
7.025772583E0,2.765499115E0,-6.689139862E0,-9.198371887E-1,7.022002583E0,-2.608294964E0,-3.010711193E0,-8.608439565E-1
7.035828583E0,2.437980194E0,-6.199657745E0,-9.418414307E-1,7.032057583E0,-2.540137291E0,-3.449639797E0,-4.249491394E-1
7.045883583E0,1.664688263E0,-5.732030182E0,-4.893324280E-1,7.042113583E0,-2.308288574E0,-3.381195545E0,-1.607804894E-1
7.055939583E0,4.373904419E-1,-5.713618469E0,-4.562512207E-1,7.052168583E0,-1.924078107E0,-3.014128923E0,-1.086885259E-1
7.065993833E0,-8.445437622E-1,-5.725593567E0,-7.008425903E-1,7.062222833E0,-1.514540315E0,-2.609120369E0,-1.897244155E-1
7.076048833E0,-1.683549042E0,-5.708828430E0,-1.042132874E0,7.072277833E0,-1.102053404E0,-2.333136082E0,-3.109821379E-1
7.086104833E0,-2.124082947E0,-5.469027100E0,-1.098864899E0,7.082333833E0,-7.237183452E-1,-2.305692911E0,-4.768639207E-1
7.096159833E0,-2.404749298E0,-5.308860168E0,-6.855743408E-1,7.092388833E0,-4.158646464E-1,-2.390644073E0,-6.474441886E-1
7.106215833E0,-2.466570740E0,-4.975503387E0,-5.972579956E-2,7.102444833E0,-2.093479335E-1,-2.461475372E0,-7.571135759E-1
7.116270833E0,-2.302062836E0,-4.580774231E0,4.887336731E-1,7.112499833E0,-2.210721187E-2,-2.385654688E0,-8.227325678E-1
7.126326833E0,-2.218386841E0,-4.264032898E0,8.352630615E-1,7.122555833E0,2.092820108E-1,-2.153701544E0,-8.672425747E-1
7.136381833E0,-2.264341278E0,-3.950285339E0,6.972500610E-1,7.132610833E0,4.711628854E-1,-1.877935410E0,-8.946436048E-1
7.146437833E0,-2.321073303E0,-3.766467590E0,2.252815247E-1,7.142666833E0,7.300325632E-1,-1.601416945E0,-8.859507442E-1
7.156492833E0,-2.341730347E0,-3.537593536E0,-5.519023132E-1,7.152721833E0,9.911895990E-1,-1.354447126E0,-8.580405116E-1
7.166548833E0,-2.244133301E0,-3.388353882E0,-1.802551575E0,7.162777833E0,1.296291709E0,-1.176991105E0,-8.241965771E-1
7.176603833E0,-2.021546173E0,-3.662134552E0,-2.924917603E0,7.172832833E0,1.632706523E0,-1.019835830E0,-7.570652366E-1
7.186659833E0,-1.698218536E0,-4.220772858E0,-3.829336853E0,7.182888833E0,1.928232074E0,-8.549134135E-1,-6.394122243E-1
7.196714833E0,-1.402283936E0,-5.180726624E0,-4.401746521E0,7.192944833E0,2.143125057E0,-6.569587588E-1,-4.752278030E-1
7.206770833E0,-1.270408173E0,-6.878795471E0,-4.659211121E0,7.202999833E0,2.187880993E0,-5.016977191E-1,-3.128472567E-1
7.216825833E0,-1.287472687E0,-9.077124023E0,-4.054319000E0,7.213055833E0,2.140182734E0,-1.562683731E-1,-2.056670189E-1
7.226881833E0,-1.921853485E0,-1.099822906E1,-3.414699097E0,7.223110833E0,1.964510798E0,4.720755816E-1,-2.282053381E-1
7.236936833E0,-2.637365570E0,-1.333307373E1,-5.158572693E0,7.233166833E0,1.617804527E0,7.874313593E-1,-2.766314745E-1
7.246992833E0,-3.613635406E0,-1.609288467E1,-1.007509872E1,7.243221833E0,1.113366723E0,3.945076168E-1,-1.628350914E-1
7.257047833E0,-3.646566925E0,-1.833357513E1,-1.635454056E1,7.253277833E0,3.557453752E-1,-9.427933693E-1,3.487239778E-2
7.267103833E0,-2.166744232E0,-1.866498596E1,-1.814077606E1,7.263332833E0,-4.417160153E-1,-2.222716331E0,9.299556166E-2
7.277158833E0,-1.272354126E-2,-1.553589294E1,-1.594274689E1,7.273388833E0,-9.874110222E-1,-2.644815683E0,1.027589738E-1
7.287214833E0,5.107379150E-1,-1.223525665E1,-1.114821716E1,7.283443833E0,-1.023272038E0,-2.140500069E0,1.403848976E-1
7.297269833E0,-1.005908203E-1,-9.709409180E0,-5.066214752E0,7.293499833E0,-7.161613703E-1,-9.760473967E-1,5.167607963E-2
7.307325833E0,-1.408121796E0,-7.704927521E0,-3.047812042E0,7.303554833E0,-3.931473792E-1,-1.727820635E-1,-1.132746190E-1
7.317380833E0,-2.297422485E0,-7.145241394E0,-4.461322632E0,7.313610833E0,-2.679353952E-1,-1.730739474E-1,-1.585957706E-1
7.327436833E0,-1.540296936E0,-6.941215668E0,-6.277346191E0,7.323665833E0,-2.880565524E-1,-5.311214924E-1,-1.571897715E-1
7.337492833E0,-1.425036621E-1,-7.166197815E0,-7.236701202E0,7.333721833E0,-2.919516861E-1,-7.726707458E-1,-1.410739124E-1
7.347547833E0,-9.894424438E-2,-9.159303131E0,-6.974446564E0,7.343776833E0,-1.670840383E-1,-6.245211363E-1,-4.122911766E-2
7.357603833E0,-1.439257050E0,-1.244646744E1,-7.113357697E0,7.353832833E0,1.934229769E-2,-5.249740481E-1,7.764879614E-2
7.367658833E0,-3.283721466E0,-1.532543060E1,-4.925058289E0,7.363887833E0,2.707762122E-1,-7.070159167E-2,2.595675290E-1
7.377714833E0,-5.169649658E0,-1.776625488E1,-1.478176117E0,7.373943833E0,6.194732189E-1,7.438816428E-1,4.713178873E-1
7.387769833E0,-6.186185760E0,-1.913470917E1,1.272204437E0,7.383998833E0,7.813671827E-1,1.606229663E0,5.555468202E-1
7.397825833E0,-6.346352692E0,-1.679821793E1,1.593586121E0,7.394054833E0,5.549127460E-1,1.970901608E0,3.302788138E-1
7.407880833E0,-5.012775879E0,-1.121512802E1,8.795709229E-1,7.404109833E0,1.797197154E-3,1.801768422E0,9.250210971E-2
7.417936833E0,-2.001787262E0,-6.186634827E0,2.708168335E0,7.414165833E0,-3.445974886E-1,1.676334858E0,1.277212612E-2
7.427991833E0,-1.627116394E-1,-3.198997650E0,5.251080322E0,7.424220833E0,-1.764767617E-1,1.636951089E0,-3.098240867E-2
7.438047833E0,-9.415420532E-2,-1.998045044E0,6.121969299E0,7.434276833E0,8.115664870E-2,1.649227738E0,-3.842913732E-2
7.448102833E0,-1.014590149E0,-2.805016937E0,5.363945618E0,7.444331833E0,2.522886693E-1,1.645461679E0,8.981641382E-2
7.458158833E0,-2.378254395E0,-5.735023956E0,3.309767303E0,7.454387833E0,2.970422804E-1,1.707560539E0,4.223253727E-1
7.468213833E0,-3.108286285E0,-8.202043762E0,1.711091766E0,7.464443833E0,4.681858122E-1,1.747973442E0,6.762514114E-1
7.478269833E0,-3.285667419E0,-1.156031021E1,1.413211212E0,7.474498833E0,8.912254572E-1,2.022941828E0,8.946504593E-1
7.488324833E0,-2.866389313E0,-1.437550598E1,1.431473236E0,7.484554833E0,1.445653200E0,2.525071859E0,1.085219264E0
7.498380833E0,-1.715133362E0,-1.476604385E1,1.291963348E0,7.494609833E0,1.952472448E0,2.935821056E0,1.164101720E0
7.508435833E0,-5.971083069E-1,-1.216924393E1,1.629361725E0,7.504665833E0,2.159170866E0,2.988871574E0,1.057043910E0
7.518491833E0,4.430786133E-2,-8.593330078E0,2.483784943E0,7.514720833E0,2.052708149E0,2.756611109E0,8.275220394E-1
7.528546833E0,3.914360046E-1,-7.232509918E0,3.029699707E0,7.524776833E0,1.836030126E0,2.388617992E0,7.953005433E-1
7.538602833E0,6.478527832E-1,-7.762407990E0,3.591930542E0,7.534831833E0,1.650441885E0,2.046993971E0,9.892705679E-1
7.548657833E0,6.039939880E-1,-9.027577057E0,3.893703003E0,7.544887833E0,1.356898189E0,1.851214290E0,1.253514528E0
7.558713833E0,1.064586182E0,-1.077354630E1,3.171604614E0,7.554942833E0,9.266228676E-1,1.575505257E0,1.370337605E0
7.568768833E0,1.520388336E0,-1.187854843E1,2.032174072E0,7.564998833E0,6.357614994E-1,1.038261533E0,1.073745012E0
7.578824833E0,2.320175171E0,-1.104358475E1,-2.210902405E-1,7.575053833E0,9.530348182E-1,4.387078583E-1,5.361970663E-1
7.588880833E0,2.531535645E0,-9.117989044E0,-2.758314056E0,7.585109833E0,1.889481664E0,3.823112696E-2,5.657884479E-2
7.598935833E0,1.382974091E0,-8.081544342E0,-2.620151367E0,7.595164833E0,2.646677256E0,-9.163233638E-2,-4.039141834E-1
7.608991833E0,2.221380615E-1,-8.204438782E0,-7.667056274E-1,7.605220833E0,2.762014389E0,1.643732339E-1,-6.160659194E-1
7.619046833E0,-6.146218872E-1,-7.900720367E0,1.941462708E-1,7.615275833E0,2.394676685E0,6.872473359E-1,-6.098178625E-1
7.629102833E0,-1.683549042E0,-7.610473938E0,6.227050781E-2,7.625331833E0,1.857524872E0,1.199017763E0,-4.839882553E-1
7.639157833E0,-2.395019531E0,-7.863148499E0,-7.940986633E-1,7.635386833E0,1.387909174E0,1.415152907E0,-2.685747445E-1
7.649213833E0,-2.473306732E0,-8.162675629E0,-1.638941803E0,7.645442833E0,1.117850304E0,1.254498243E0,-1.375833899E-1
7.659268833E0,-2.138003998E0,-8.435707855E0,-1.622925110E0,7.655497833E0,1.021726131E0,9.079378247E-1,-6.054187566E-2
7.669324833E0,-1.542242889E0,-8.692723389E0,-6.731501770E-1,7.665553833E0,9.966452718E-1,6.884227991E-1,4.857638851E-3
7.679379833E0,-6.613247681E-1,-9.141939240E0,1.625619507E-1,7.675608833E0,1.029785991E0,6.841633320E-1,3.706946224E-2
7.689435833E0,5.508544922E-2,-1.005504044E1,1.811233521E-2,7.685664833E0,1.096283436E0,7.025864124E-1,8.483149856E-2
7.699490833E0,6.228547668E-1,-1.043749512E1,-3.909869385E-1,7.695719833E0,1.155630827E0,6.916576028E-1,1.367562115E-1
7.709546833E0,1.119821320E0,-9.994266815E0,-6.399192810E-1,7.705775833E0,1.200879574E0,7.525960207E-1,1.297504008E-1
7.719601833E0,1.504820709E0,-9.851912842E0,-1.209035797E0,7.715831833E0,1.218182445E0,7.801874280E-1,1.369329542E-1
7.729657833E0,1.708846436E0,-9.478589172E0,-1.852846985E0,7.725886833E0,1.170461774E0,7.158181667E-1,1.793453395E-1
7.739712833E0,1.626817017E0,-8.825197906E0,-2.166893921E0,7.735942833E0,1.130255461E0,6.535995007E-1,2.103320211E-1
7.749768833E0,1.544039154E0,-8.333620148E0,-2.168241119E0,7.745997833E0,1.129810810E0,6.256282926E-1,2.547080219E-1
7.759823833E0,1.416654053E0,-8.284821625E0,-2.101629639E0,7.756053833E0,1.129384995E0,5.979274511E-1,3.375238180E-1
7.769879833E0,1.082698517E0,-8.529862061E0,-2.003284149E0,7.766108833E0,1.088733435E0,5.045566559E-1,4.059770107E-1
7.779934833E0,5.342390442E-1,-8.609496460E0,-1.519490204E0,7.776164833E0,1.021063805E0,4.142227173E-1,4.369016290E-1
7.789990833E0,-6.032455444E-2,-8.665480042E0,-9.228309631E-1,7.786219833E0,9.534692168E-1,3.672395349E-1,4.365494251E-1
7.800045833E0,-5.415737915E-1,-8.850345612E0,-4.731660461E-1,7.796275833E0,9.063291550E-1,3.460426331E-1,4.309751689E-1
7.810101833E0,-9.128018188E-1,-9.037456512E0,-1.212478638E-1,7.806330833E0,8.815472722E-1,3.342028558E-1,4.323688447E-1
7.820156833E0,-9.485774231E-1,-9.373058624E0,1.818717957E-1,7.816386833E0,8.767690063E-1,3.339461088E-1,4.578323960E-1
7.830212833E0,-6.143225098E-1,-9.706714783E0,5.556445312E-1,7.826441833E0,8.476482630E-1,3.750001788E-1,5.049322248E-1
7.840268833E0,-1.691482544E-2,-9.947264557E0,7.225474548E-1,7.836497833E0,7.718717456E-1,4.173803926E-1,5.147512555E-1
7.850323833E0,5.066963196E-1,-1.031115784E1,7.223977661E-1,7.846552833E0,6.604506373E-1,4.569315016E-1,4.639669657E-1
7.860379833E0,8.836125183E-1,-1.069855225E1,5.739065552E-1,7.856608833E0,5.837467909E-1,4.478658438E-1,3.602096736E-1
7.870434833E0,1.171014862E0,-1.136331985E1,3.570075989E-1,7.866663833E0,5.465158820E-1,3.593333066E-1,2.321875691E-1
7.880490833E0,1.311871948E0,-1.245380219E1,1.989363098E-1,7.876719833E0,5.148026943E-1,2.507391870E-1,1.056069881E-1
7.890545833E0,1.576671295E0,-1.330193848E1,-5.538482666E-3,7.886774833E0,4.932236075E-1,1.659267247E-1,5.650188774E-3
7.900601833E0,1.876647491E0,-1.356194778E1,-1.965412903E-1,7.896830833E0,4.658196867E-1,1.247723699E-1,-4.984476045E-2
7.910656833E0,2.193987579E0,-1.322784256E1,-4.321513367E-1,7.906885833E0,4.317896664E-1,1.320247203E-1,-6.478165835E-2
7.920712833E0,2.492317200E0,-1.287891815E1,-8.996292114E-1,7.916941833E0,4.045670927E-1,1.513419449E-1,-8.136196434E-2
7.930767833E0,2.593357086E0,-1.274419830E1,-1.740430756E0,7.926996833E0,4.278801680E-1,1.348928660E-1,-1.069574654E-1
7.940823833E0,2.570155334E0,-1.265633102E1,-2.317181396E0,7.937052833E0,4.649830461E-1,1.501503885E-1,-1.093974560E-1
7.950878833E0,2.304008789E0,-1.264450562E1,-2.431992645E0,7.947107833E0,4.322714210E-1,3.292300701E-1,-1.430956572E-1
7.960934833E0,2.169438629E0,-1.285227356E1,-2.640509033E0,7.957163833E0,2.710029185E-1,6.330432296E-1,-1.589118987E-1
7.970989833E0,2.629132690E0,-1.312530579E1,-3.130290527E0,7.967218833E0,-1.002248749E-1,8.222715855E-1,-1.664369255E-1
7.981045833E0,3.182082825E0,-1.330223785E1,-3.419938202E0,7.977274833E0,-6.543546915E-1,7.343044281E-1,-2.192655206E-1
7.991100833E0,3.183879089E0,-1.349952759E1,-2.821033630E0,7.987330833E0,-1.164161921E0,4.199092388E-1,-3.146892190E-1
8.001156833E0,3.067121887E0,-1.382749557E1,-1.840722198E0,7.997385833E0,-1.496387005E0,-2.543389797E-2,-4.002065361E-1
8.011211833E0,2.931653595E0,-1.375384872E1,-6.457571411E-1,8.007441833E0,-1.678775549E0,-4.343512654E-1,-4.370520413E-1
8.021267833E0,2.393822021E0,-1.308279419E1,8.577163696E-2,8.017496833E0,-1.824334383E0,-7.605587244E-1,-4.774543047E-1
8.031322833E0,1.331181793E0,-1.187271057E1,7.738906860E-2,8.027552833E0,-2.017067671E0,-1.017247915E0,-5.569976568E-1
8.041378833E0,-2.309696960E-1,-1.021655457E1,-2.363584900E-1,8.037607833E0,-2.155050755E0,-1.303440809E0,-6.104134917E-1
8.051433833E0,-2.029779053E0,-8.708141327E0,-5.921685791E-1,8.047663833E0,-2.276661873E0,-1.580891728E0,-6.147986054E-1
8.061489458E0,-3.369193726E0,-8.484955444E0,-5.158273315E-1,8.057718833E0,-2.508503199E0,-1.909711242E0,-5.104197264E-1
8.071544458E0,-3.618275757E0,-9.269324341E0,1.764380951E0,8.067774458E0,-2.915029287E0,-1.732545614E0,-3.676057458E-1
8.081600458E0,-3.440445557E0,-1.010443771E1,4.288881226E0,8.077829458E0,-3.109221935E0,-1.237953663E0,-2.625309825E-1
8.091655458E0,-3.620072021E0,-1.132185608E1,6.128106537E0,8.087885458E0,-3.179044008E0,-4.245283008E-1,-2.263584584E-1
8.101711458E0,-4.146676941E0,-1.338606354E1,7.097041626E0,8.097940458E0,-3.160917759E0,6.068434119E-1,-1.946966797E-1
8.111767458E0,-5.043462067E0,-1.564786011E1,7.344028015E0,8.107996458E0,-3.034060478E0,1.763237953E0,-5.334034562E-2
8.121822458E0,-5.772146759E0,-1.701631439E1,5.617218933E0,8.118051458E0,-2.781373978E0,2.725500584E0,2.247309536E-1
8.131878458E0,-6.641089783E0,-1.686378159E1,-7.604187012E-1,8.128107458E0,-2.440275192E0,2.785962105E0,4.641219378E-1
8.141933458E0,-7.961194611E0,-1.383842285E1,-8.153095551E0,8.138162458E0,-2.213732958E0,1.712803245E0,1.424123645E-1
8.151989458E0,-8.214767303E0,-1.086186264E1,-7.799830170E0,8.148218458E0,-2.122416019E0,7.803149819E-1,-6.908080578E-1
8.162044458E0,-4.998405762E0,-1.163290924E1,-4.229454803E0,8.158273458E0,-1.970559716E0,6.312618852E-1,-8.215788603E-1
8.172100458E0,-2.921325073E0,-1.059377014E1,-1.797312469E0,8.168329458E0,-1.751352429E0,9.758121371E-1,-6.284346581E-1
8.182155458E0,-1.952240295E0,-9.178163910E0,-5.462590485E0,8.178384458E0,-8.550728559E-1,-1.066564679E0,-6.526377201E-1
8.192211458E0,4.659809875E-1,-8.055049438E0,-5.588628387E0,8.188440458E0,-5.320607424E-1,-3.844879866E0,-1.391230226E0
8.202266458E0,2.210902405E0,-8.833281097E0,1.510209503E0,8.198495458E0,-1.459617376E0,-3.824294567E0,-1.671573758E0
8.212322458E0,3.269351349E0,-8.433612213E0,3.700604553E0,8.208551458E0,-2.183896780E0,-2.962834358E0,-1.718207479E0
8.222377458E0,3.522474976E0,-7.760462036E0,3.439547424E0,8.218606458E0,-2.498814344E0,-2.184147835E0,-1.689447284E0
8.232433458E0,3.439547424E0,-7.206613770E0,2.354304199E0,8.228662458E0,-2.530670643E0,-1.806331515E0,-1.574268937E0
8.242488458E0,2.739303589E0,-6.666985931E0,5.234614563E-1,8.238718458E0,-2.460749626E0,-1.907250881E0,-1.390375853E0
8.252544458E0,2.162103882E0,-6.020779724E0,-6.785389709E-1,8.248773458E0,-2.411559343E0,-2.501801491E0,-1.068189740E0
8.262599458E0,1.863025818E0,-6.104006653E0,-7.244934082E-1,8.258829458E0,-2.299699783E0,-3.062788248E0,-6.523728967E-1
8.272655458E0,1.452429657E0,-5.755980377E0,-7.128176880E-1,8.268884458E0,-2.091088533E0,-3.493573904E0,-3.425222039E-1
8.282710458E0,6.897656250E-1,-5.483397217E0,-1.148112488E-1,8.278940458E0,-1.871715069E0,-3.528332710E0,-2.338769734E-1
8.292766458E0,-1.303788757E-1,-5.454058228E0,4.270619202E-1,8.288995458E0,-1.685883641E0,-3.275549412E0,-2.626999617E-1
8.302821458E0,-8.089178467E-1,-5.503006439E0,2.808160400E-1,8.299051458E0,-1.438213468E0,-2.950283527E0,-3.991566002E-1
8.312877458E0,-1.433119812E0,-5.631289673E0,-1.881587219E-1,8.309106458E0,-1.123563528E0,-2.710300207E0,-5.929207206E-1
8.322932458E0,-1.958976288E0,-5.590125275E0,-5.638774109E-1,8.319162458E0,-7.981113791E-1,-2.651401281E0,-7.564276457E-1
8.332988458E0,-2.281854858E0,-5.324427795E0,-5.200186157E-1,8.329217458E0,-4.886280000E-1,-2.736478567E0,-8.712234497E-1
8.343043458E0,-2.548300781E0,-5.006488953E0,-5.837860107E-2,8.339273458E0,-1.535842270E-1,-2.710417032E0,-9.638585448E-1
8.353099458E0,-2.842439117E0,-4.666994934E0,2.251318359E-1,8.349328458E0,2.044231445E-1,-2.497399569E0,-1.052656412E0
8.363155458E0,-3.151097260E0,-4.103117523E0,4.442761230E-1,8.359384458E0,5.545113683E-1,-2.142656803E0,-1.119786978E0
8.373210458E0,-3.210673370E0,-3.613336029E0,1.285826111E-1,8.369439458E0,8.254609704E-1,-1.784909129E0,-1.103396773E0
8.383266458E0,-3.097059631E0,-3.247347107E0,-7.613168335E-1,8.379495458E0,1.052749753E0,-1.488472939E0,-1.032047749E0
8.393321458E0,-2.872077484E0,-3.093317413E0,-2.024390259E0,8.389550458E0,1.339855313E0,-1.217470765E0,-9.262791276E-1
8.403377458E0,-2.395318909E0,-3.276536407E0,-3.061284027E0,8.399606458E0,1.655549049E0,-9.402325153E-1,-8.381545544E-1
8.413432458E0,-2.027384033E0,-3.770658875E0,-3.407963104E0,8.409661458E0,1.997179985E0,-5.682811141E-1,-7.022682428E-1
8.423488458E0,-2.149979095E0,-4.766238556E0,-3.606899414E0,8.419717458E0,2.226672649E0,-1.454411894E-1,-4.056299329E-1
8.433543458E0,-1.991458740E0,-6.468049622E0,-3.764521637E0,8.429772458E0,2.373286724E0,1.564539671E-1,-1.519457251E-1
8.443599458E0,-1.849553833E0,-8.393196259E0,-4.195625153E0,8.439828458E0,2.420091152E0,3.570651114E-1,-7.318506017E-3
8.453654458E0,-2.053130493E0,-1.046952850E1,-4.390819244E0,8.449883458E0,2.289020538E0,5.979926586E-1,3.333605453E-2
8.463710458E0,-2.587219849E0,-1.281979111E1,-3.891457672E0,8.459939458E0,2.002219915E0,1.005192637E0,5.930373818E-2
8.473765458E0,-3.191513214E0,-1.483624786E1,-6.589596863E0,8.469995458E0,1.476878285E0,1.085810423E0,1.108730063E-1
8.483821458E0,-3.485651550E0,-1.754097336E1,-1.237566467E1,8.480050458E0,7.061895728E-1,3.117708862E-1,2.577766776E-1
8.493876458E0,-3.001857605E0,-1.977702347E1,-1.671424255E1,8.490106458E0,-9.181611240E-2,-9.867135286E-1,3.880676031E-1
8.503932458E0,-1.366658020E0,-1.889266251E1,-1.757959305E1,8.500161458E0,-7.502848506E-1,-2.057340384E0,3.168051839E-1
8.513987458E0,2.743794250E-1,-1.641860733E1,-1.599528763E1,8.510217458E0,-1.141417861E0,-2.523512125E0,1.631021947E-1
8.524043458E0,7.860154724E-1,-1.429332687E1,-1.028346542E1,8.520272458E0,-1.128241062E0,-2.063004732E0,-1.332236268E-2
8.534098458E0,8.771759033E-1,-1.123653351E1,-4.422852631E0,8.530328458E0,-9.512931705E-1,-1.208430290E0,-2.727161050E-1
8.544154458E0,2.254312134E-1,-8.619675293E0,-4.110901337E0,8.540383458E0,-9.409856796E-1,-9.610982537E-1,-4.666006267E-1
8.554209458E0,-2.921923828E-1,-7.339687042E0,-5.918841705E0,8.550439458E0,-1.064316034E0,-1.194492936E0,-4.942675531E-1
8.564265458E0,9.624984741E-2,-6.094276886E0,-7.108717346E0,8.560494458E0,-1.098702669E0,-1.174435854E0,-3.813069165E-1
8.574320458E0,1.229393463E0,-4.438270569E0,-7.329957275E0,8.570550458E0,-8.460035324E-1,-8.248826861E-1,-3.048577011E-1
8.584376458E0,1.195563812E0,-3.475023651E0,-6.613247681E0,8.580605458E0,-3.708164692E-1,-4.231674373E-1,-1.891958117E-1
8.594432458E0,-1.366658020E0,-5.772595825E0,-5.985453186E0,8.590661458E0,5.310767144E-2,-2.593443096E-1,-3.167792037E-2
8.604487458E0,-3.163072357E0,-1.013811768E1,-4.504582672E0,8.600716458E0,5.047510266E-1,-1.166598424E-1,1.580776423E-1
8.614543458E0,-4.645439758E0,-1.439795929E1,2.103126526E-1,8.610772458E0,1.002037287E0,8.499946594E-1,3.679982424E-1
8.624598458E0,-6.201753387E0,-2.006218048E1,3.996090088E0,8.620827458E0,1.424697995E0,2.187304735E0,7.216639519E-1
8.634654458E0,-7.399412842E0,-2.351669678E1,5.251529388E0,8.630883458E0,1.489390969E0,3.120555639E0,8.789252639E-1
8.644709458E0,-7.917635193E0,-2.090417953E1,3.545676727E0,8.640938458E0,8.608412743E-1,2.952464104E0,5.455915332E-1
8.654765458E0,-4.205055542E0,-1.265603165E1,2.169588318E0,8.650994458E0,-1.213585287E-1,1.807864428E0,8.949720860E-2
8.664820458E0,-4.373904419E-1,-7.331454163E0,5.343887329E0,8.661049458E0,-2.826707363E-1,1.032345533E0,-3.379702941E-2
8.674876458E0,3.540138245E-1,-4.459376678E0,7.127727814E0,8.671105458E0,-1.146765426E-1,1.169977784E0,-8.511092514E-2
8.684931458E0,-5.477110291E-1,-3.400328979E0,4.088148651E0,8.681160458E0,-6.282612681E-2,1.286147714E0,1.159526780E-1
8.694987458E0,-1.734443207E0,-3.718866577E0,1.240919495E0,8.691216458E0,4.227292165E-2,1.133980751E0,2.582163215E-1
8.705042458E0,-1.925146637E0,-4.284091187E0,7.743397522E-1,8.701272458E0,3.777385354E-1,1.083820701E0,3.560986519E-1
8.715098458E0,-1.517244873E0,-5.032085724E0,1.506467285E0,8.711327458E0,9.660233259E-1,1.320765018E0,4.425099790E-1
8.725153458E0,-1.515747986E0,-7.087012482E0,3.053799591E0,8.721383458E0,1.615100503E0,1.970924854E0,6.504210830E-1
8.735209458E0,-1.882934418E0,-9.512418823E0,3.775598602E0,8.731438458E0,1.968809247E0,2.843965769E0,8.424651027E-1
8.745264458E0,-2.188449097E0,-1.067624863E1,3.917054443E0,8.741494458E0,2.058566570E0,3.581344128E0,1.026264787E0
8.755320458E0,-2.144739990E0,-1.059122543E1,4.169130249E0,8.751549458E0,1.913013935E0,4.210724354E0,1.304077625E0
8.765375458E0,-1.908980255E0,-1.013677048E1,3.763623505E0,8.761605458E0,1.611846685E0,4.588252068E0,1.595790744E0
8.775431458E0,-1.346899109E0,-1.053120026E1,2.038460999E0,8.771660458E0,1.227890611E0,4.157744408E0,1.906854153E0
8.785486458E0,-9.542655945E-1,-1.168709656E1,8.247848511E-1,8.781716458E0,8.347139955E-1,2.884032965E0,2.076786518E0
8.795542458E0,-8.264314270E-1,-1.311901886E1,4.101470947E-1,8.791771458E0,8.751732111E-1,1.426059961E0,1.646472096E0
8.805598458E0,5.577401733E-1,-1.215023346E1,-9.735754395E-1,8.801827458E0,1.307229042E0,-3.213577271E-1,8.303570747E-1
8.815653458E0,2.060764618E0,-9.302255859E0,-9.261241150E-1,8.811882458E0,2.025291204E0,-1.690569520E0,1.260389835E-1
8.825709458E0,2.159259796E0,-8.256979523E0,2.418969727E-1,8.821938458E0,2.590837717E0,-2.251604557E0,-3.060972691E-1
8.835764458E0,2.040856018E0,-8.003257141E0,4.697232056E-1,8.831993458E0,2.890890837E0,-2.145580769E0,-4.356777370E-1
8.845820458E0,1.452130280E0,-7.144942017E0,9.012757874E-1,8.842049458E0,2.954465389E0,-1.274597287E0,-4.544567466E-1
8.855875458E0,3.638932800E-1,-7.390132141E0,1.063837738E0,8.852104458E0,2.592368126E0,1.441447288E-1,-3.892031908E-1
8.865931458E0,-2.694396973E-2,-8.250393219E0,-6.661148071E-1,8.862160458E0,1.881067157E0,1.135727525E0,-2.772143483E-1
8.875986458E0,1.317260742E-1,-8.325387268E0,-3.003204803E0,8.872215458E0,1.207751989E0,1.103642821E0,-2.314994335E-1
8.886042458E0,-4.345463562E-1,-8.714428253E0,-2.771486664E0,8.882271458E0,9.749371409E-1,7.359388471E-1,-3.119484484E-1
8.896097458E0,-5.463638306E-1,-1.011341904E1,-1.393751678E0,8.892326458E0,9.942327738E-1,5.628370643E-1,-2.866593599E-1
8.906153458E0,3.248245239E-2,-1.038300842E1,-1.000220032E0,8.902382458E0,1.001228929E0,4.661073387E-1,-2.603025734E-1
8.916208458E0,1.969903564E-1,-1.010353958E1,-8.156538391E-1,8.912438458E0,1.022043228E0,5.632604957E-1,-2.428004295E-1
8.926264458E0,3.388952637E-1,-1.004875351E1,-1.153501282E0,8.922493458E0,1.067903161E0,7.294774055E-1,-2.170279473E-1
8.936319458E0,6.230044556E-1,-9.777517548E0,-1.785337372E0,8.932549458E0,1.117511392E0,8.266564012E-1,-1.608937234E-1
8.946375458E0,8.949888611E-1,-9.640702057E0,-2.405647430E0,8.942604458E0,1.108626604E0,7.806057930E-1,-9.334450960E-2
8.956430458E0,1.146765289E0,-9.369466095E0,-2.960693207E0,8.952660458E0,1.039369106E0,4.576460719E-1,-1.056626253E-2
8.966486458E0,1.217268677E0,-8.928932190E0,-2.602338409E0,8.962715458E0,9.555902481E-1,8.000584692E-2,8.283025771E-2
8.976541458E0,1.116228790E0,-8.559201050E0,-1.688937836E0,8.972771458E0,8.914515972E-1,-1.989057362E-1,1.500714719E-1
8.986597458E0,9.545649719E-1,-8.417745209E0,-7.897576904E-1,8.982826458E0,8.488721848E-1,-3.016166985E-1,2.072426230E-1
8.996652458E0,6.869215393E-1,-8.226892090E0,-1.166075134E-1,8.992882458E0,8.273966908E-1,-2.259546667E-1,2.552192211E-1
9.006708458E0,3.149450684E-1,-8.054300995E0,2.929408264E-1,9.002937458E0,8.534504175E-1,-2.595569193E-2,2.792483866E-1
9.016764458E0,-5.478607178E-2,-8.151149597E0,3.050656128E-1,9.012993458E0,9.227207303E-1,1.747715771E-1,2.882048488E-1
9.026819458E0,-3.885919189E-1,-8.531209259E0,1.377136230E-2,9.023048458E0,1.000944972E0,2.801824212E-1,2.883492112E-1
9.036875458E0,-6.656657410E-1,-9.028924255E0,-1.966909790E-1,9.033104458E0,1.060482979E0,2.902599573E-1,2.811376154E-1
9.046930458E0,-7.304809570E-1,-9.661957855E0,-2.230361938E-1,9.043159458E0,1.091629982E0,2.347636819E-1,2.928690910E-1
9.056986458E0,-5.397775269E-1,-1.050500473E1,-9.175918579E-2,9.053215458E0,1.056420565E0,1.625564694E-1,3.380703926E-1
9.067042083E0,-1.437011719E-1,-1.120509888E1,1.095721436E-1,9.063271083E0,9.347369671E-1,1.151841655E-1,3.888214529E-1
9.077098083E0,2.556683350E-1,-1.154773636E1,9.056167603E-2,9.073327083E0,7.857229114E-1,9.528308362E-2,4.215458930E-1
9.087153083E0,4.670288086E-1,-1.160297150E1,-1.640588379E-1,9.083382083E0,7.006767392E-1,8.434601128E-2,4.100136161E-1
9.097209083E0,5.974076843E-1,-1.144415176E1,-4.403842163E-1,9.093438083E0,6.776298285E-1,6.328479201E-2,3.321786821E-1
9.107264083E0,6.622229004E-1,-1.155761581E1,-6.248007202E-1,9.103494083E0,6.278955340E-1,1.355825365E-2,2.265073657E-1
9.117320083E0,8.340655518E-1,-1.205233704E1,-6.752458191E-1,9.113549083E0,5.067995191E-1,-4.179522023E-2,1.694339812E-1
9.127375083E0,1.267564087E0,-1.245350281E1,-3.975732422E-1,9.123605083E0,3.256752491E-1,-3.438017890E-2,1.534622163E-1
9.137431083E0,1.913021851E0,-1.256172775E1,5.209167480E-2,9.133660083E0,1.203470826E-1,6.426420063E-2,1.591923088E-1
9.147486083E0,2.475552063E0,-1.221055801E1,2.245330811E-3,9.143716083E0,-1.522246655E-2,1.979575455E-1,1.416436732E-1
9.157542083E0,2.587070160E0,-1.194111832E1,-7.012916565E-1,9.153771083E0,2.245274372E-3,3.221805394E-1,4.183996096E-2
9.167597083E0,2.384691010E0,-1.199515594E1,-1.643881531E0,9.163827083E0,1.197063923E-1,4.259135723E-1,-1.209297851E-1
9.177653083E0,1.936672668E0,-1.225726089E1,-2.069895630E0,9.173882083E0,1.731131375E-1,6.076982021E-1,-3.014654815E-1
9.187708083E0,1.579665070E0,-1.270303391E1,-2.254162445E0,9.183938083E0,7.157426327E-2,8.510666490E-1,-4.108412564E-1
9.197764083E0,1.807790680E0,-1.320074890E1,-2.523302765E0,9.193993083E0,-2.521197200E-1,9.594834447E-1,-4.300913513E-1
9.207819083E0,1.580712891E0,-1.370220612E1,-2.407443695E0,9.204049083E0,-6.931777596E-1,8.966776133E-1,-4.412057996E-1
9.217875083E0,8.960366821E-1,-1.386940842E1,-2.381248169E0,9.214104083E0,-1.047657490E0,5.728971958E-1,-4.117178023E-1
9.227931083E0,9.779164124E-1,-1.329295715E1,-2.158361664E0,9.224160083E0,-1.314352274E0,6.376791000E-2,-3.593941331E-1
9.237986083E0,1.704505463E0,-1.260708344E1,-1.904339905E0,9.234215083E0,-1.649239421E0,-4.822436571E-1,-3.639005125E-1
9.248042083E0,1.538800049E0,-1.181822388E1,-1.144669647E0,9.244271083E0,-2.031794548E0,-7.688030005E-1,-4.362492859E-1
9.258097083E0,9.370513916E-2,-1.050799850E1,-5.819897461E-1,9.254326083E0,-2.297480822E0,-8.277752995E-1,-5.175519586E-1
9.268153083E0,-1.729054413E0,-9.017697601E0,-4.878355408E-1,9.264382083E0,-2.425072670E0,-8.544487357E-1,-6.018777490E-1
9.278208083E0,-3.290158081E0,-8.349487152E0,-1.390608215E-1,9.274437083E0,-2.532600641E0,-8.966870904E-1,-6.432407498E-1
9.288264083E0,-3.965104523E0,-8.955127716E0,1.187779999E0,9.284493083E0,-2.761064053E0,-8.355446458E-1,-6.014698744E-1
9.298319083E0,-3.923790436E0,-9.858349457E0,3.619622955E0,9.294548083E0,-2.939726353E0,-4.858429730E-1,-5.685090423E-1
9.308375083E0,-3.874093781E0,-1.050500473E1,5.398374023E0,9.304604083E0,-2.986464500E0,5.175603554E-2,-5.862736702E-1
9.318430083E0,-4.068090363E0,-1.211580505E1,6.247109070E0,9.314660083E0,-2.978100300E0,7.536725998E-1,-6.392852068E-1
9.328486083E0,-4.636159058E0,-1.461949860E1,6.278094635E0,9.324715083E0,-2.907799006E0,1.560073256E0,-6.021580696E-1
9.338541083E0,-5.580395508E0,-1.721944199E1,4.548890533E0,9.334771083E0,-2.759021044E0,2.252697706E0,-3.604443967E-1
9.348597083E0,-6.602021027E0,-1.902977737E1,-8.640032959E-1,9.344826083E0,-2.652823687E0,2.339156628E0,6.183387712E-3
9.358652083E0,-6.882238312E0,-1.781834656E1,-6.880442047E0,9.354882083E0,-2.554838657E0,1.602217913E0,1.723189503E-1
9.368708083E0,-6.470893707E0,-1.476065506E1,-6.661597137E0,9.364937083E0,-2.468121767E0,9.909992218E-1,4.586035013E-2
9.378763083E0,-6.173013153E0,-1.209350143E1,-2.874622192E0,9.374993083E0,-2.340803862E0,1.183509588E0,-3.046715260E-1
9.388819083E0,-4.470303955E0,-1.058688446E1,-5.351371765E-1,9.385048083E0,-2.000079393E0,1.859326720E0,-6.015599370E-1
9.398874083E0,-1.636397095E0,-1.007554779E1,-1.512903900E0,9.395104083E0,-1.488424182E0,1.931514382E0,-7.939509749E-1
9.408930083E0,-8.849597168E-1,-1.010907806E1,-4.714146881E0,9.405159083E0,-9.271149635E-1,4.947400391E-1,-8.785481453E-1
9.418985083E0,-7.694000244E-2,-9.470356293E0,-7.345524902E0,9.415215083E0,-6.605063677E-1,-2.479504824E0,-1.265652776E0
9.429041083E0,1.419198761E0,-8.327033844E0,-9.448352051E-1,9.425270083E0,-1.225157499E0,-3.195876598E0,-1.573143125E0
9.439097083E0,2.574346619E0,-7.340884552E0,2.517165527E0,9.435326083E0,-1.762450337E0,-2.618080854E0,-1.743542910E0
9.449152083E0,2.938239899E0,-6.669530640E0,2.262545013E0,9.445381083E0,-2.088340044E0,-2.262401342E0,-1.695613503E0
9.459208083E0,2.668201447E0,-6.428831177E0,2.348915405E0,9.455437083E0,-2.294302702E0,-2.083722830E0,-1.425340891E0
9.469263083E0,2.327659607E0,-5.763015747E0,8.846603394E-1,9.465492083E0,-2.382576227E0,-2.337040186E0,-1.139008760E0
9.479319083E0,1.906884613E0,-5.689668274E0,-1.926493835E-1,9.475548083E0,-2.407028198E0,-3.024169207E0,-7.780026197E-1
9.489374083E0,1.567390594E0,-5.749543762E0,3.803590393E-1,9.485603083E0,-2.367974997E0,-3.427597761E0,-3.563714623E-1
9.499430083E0,7.943980408E-1,-4.871918793E0,7.394622803E-1,9.495659083E0,-2.216254711E0,-3.495003939E0,-1.192401573E-1
9.509485083E0,6.436614990E-3,-4.576283569E0,7.104226685E-1,9.505714083E0,-2.011037111E0,-3.289934635E0,-8.721298724E-2
9.519541083E0,-4.188290405E-1,-5.127437439E0,4.340972900E-2,9.515770083E0,-1.765301228E0,-3.207671881E0,-1.365010589E-1
9.529596083E0,-1.074615326E0,-4.913232880E0,8.532257080E-3,9.525825083E0,-1.454622984E0,-2.996423483E0,-3.438683450E-1
9.539652083E0,-1.662293243E0,-4.822222137E0,-4.433779907E-1,9.535881083E0,-1.050505757E0,-2.764358997E0,-5.649105906E-1
9.549707083E0,-1.951042786E0,-4.755760345E0,-7.840695190E-1,9.545937083E0,-5.755709410E-1,-2.592071772E0,-6.923130155E-1
9.559763083E0,-2.072590027E0,-4.415218506E0,-4.227209473E-1,9.555992083E0,-1.029581428E-1,-2.390756845E0,-7.681418657E-1
9.569818083E0,-2.229912872E0,-3.715723114E0,-6.511459351E-2,9.566048083E0,3.024681807E-1,-2.176996469E0,-8.536141515E-1
9.579874083E0,-2.382295990E0,-3.113375702E0,3.517684937E-1,9.576103083E0,6.163915992E-1,-1.907656431E0,-8.997394443E-1
9.589929083E0,-2.467319183E0,-2.657274170E0,4.388873291E-1,9.586159083E0,8.864675760E-1,-1.593069434E0,-8.901786804E-1
9.599985083E0,-2.422412567E0,-2.435734863E0,-1.582209778E-1,9.596214083E0,1.157964230E0,-1.299149990E0,-8.275738955E-1
9.610040083E0,-2.217339020E0,-2.619702301E0,-1.238524475E0,9.606270083E0,1.455846429E0,-1.092839956E0,-7.354154587E-1
9.620096083E0,-2.147135010E0,-3.262615356E0,-2.064207458E0,9.616325083E0,1.737685204E0,-8.892369866E-1,-5.606848598E-1
9.630152083E0,-2.439477081E0,-3.780837708E0,-2.965183868E0,9.626381083E0,1.964607358E0,-6.325913668E-1,-3.728588223E-1
9.640207083E0,-2.436183929E0,-4.998256073E0,-3.846251678E0,9.636436083E0,2.196866512E0,-4.775106609E-1,-2.104242593E-1
9.650263083E0,-2.039957886E0,-6.910529480E0,-3.927382965E0,9.646492083E0,2.468105555E0,-3.515125215E-1,-1.088691354E-1
9.660318083E0,-1.769021301E0,-8.746461639E0,-3.741020508E0,9.656547083E0,2.670588017E0,-1.160786003E-1,-1.051806360E-1
9.670374083E0,-1.970951385E0,-1.076666061E1,-3.591780853E0,9.666603083E0,2.673906565E0,2.145672292E-1,-1.536512375E-1
9.680429083E0,-2.336790619E0,-1.293669800E1,-5.129383392E0,9.676658083E0,2.383979559E0,4.679224491E-1,-1.907960624E-1
9.690485083E0,-2.526895294E0,-1.601684280E1,-9.388626251E0,9.686714083E0,1.633094192E0,3.214187622E-1,-1.420929730E-1
9.700540083E0,-2.193987579E0,-2.109922394E1,-1.487591537E1,9.696769083E0,3.729023635E-1,-4.768399894E-1,8.246755600E-2
9.710596083E0,-1.118025055E0,-2.475117966E1,-1.794348633E1,9.706825083E0,-8.548689485E-1,-1.508543253E0,1.825459450E-1
9.720651083E0,-4.011657715E-1,-2.210453339E1,-1.797611847E1,9.716880083E0,-1.732639670E0,-2.168956518E0,5.484379083E-2
9.730707083E0,-3.917353821E-1,-1.569815552E1,-1.459854218E1,9.726936083E0,-1.717096448E0,-2.017031908E0,-5.047863722E-2
9.740762083E0,-2.399510193E-1,-1.104822510E1,-9.651928711E0,9.736992083E0,-1.278604031E0,-1.435709238E0,-2.184908688E-1
9.750818083E0,-5.486091614E-1,-8.044122162E0,-7.733967133E0,9.747047083E0,-1.108158469E0,-1.397212148E0,-3.722652495E-1
9.760873083E0,-1.460512848E0,-6.779701538E0,-7.548053741E0,9.757103083E0,-1.189684272E0,-1.809493542E0,-4.390470386E-1
9.770929083E0,-1.506317596E0,-5.891897736E0,-6.470294952E0,9.767158083E0,-1.212826133E0,-1.948632002E0,-4.150040150E-1
9.780984083E0,-6.051914978E-1,-4.776866455E0,-5.241799622E0,9.777214083E0,-1.011487246E0,-1.689735770E0,-3.173879981E-1
9.791040083E0,-1.137634277E-1,-3.391197968E0,-3.754941559E0,9.787269083E0,-5.354698896E-1,-1.108240128E0,-2.108274549E-1
9.801095083E0,-1.593885498E0,-4.326752472E0,-3.040626984E0,9.797325083E0,-1.191558540E-1,-4.749027789E-1,-1.067748293E-2
9.811151083E0,-3.632047119E0,-8.790021057E0,-3.116070099E0,9.807380083E0,2.604900002E-1,-7.558201998E-2,2.920512259E-1
9.821207083E0,-5.334307251E0,-1.318548065E1,-1.014590149E0,9.817436083E0,7.685766816E-1,5.114378929E-1,6.184669137E-1
9.831262083E0,-7.433092804E0,-1.821352478E1,2.027084656E0,9.827491083E0,1.295205355E0,1.372259378E0,9.267538786E-1
9.841318083E0,-9.289532318E0,-2.286570053E1,2.914888458E0,9.837547083E0,1.342797875E0,2.083874464E0,1.180297017E0
9.851373083E0,-9.467811584E0,-2.072679840E1,1.709295502E0,9.847602083E0,6.503379345E-1,2.011887789E0,8.895589113E-1
9.861429083E0,-4.790488129E0,-1.167646866E1,2.874322815E0,9.857658083E0,2.099536359E-2,1.568671584E0,2.767690420E-1
9.871484083E0,-3.233276367E-2,-7.259603577E0,5.670358429E0,9.867713083E0,8.348962665E-2,1.401047111E0,9.095258266E-2
9.881540083E0,1.447789307E0,-5.760321350E0,6.053561554E0,9.877769083E0,3.380061984E-1,1.396673679E0,8.017852902E-2
9.891595083E0,1.054557037E0,-5.105732574E0,5.335205383E0,9.887824083E0,2.839972973E-1,1.763180614E0,2.678709328E-1
9.901651083E0,-5.113366699E-1,-5.425617371E0,3.551514587E0,9.897880083E0,1.592782140E-1,1.954115868E0,4.208633006E-1
9.911706083E0,-1.365011444E0,-6.266269226E0,2.377955017E0,9.907935083E0,3.350178301E-1,1.887678742E0,4.913739562E-1
9.921762083E0,-1.490450592E0,-6.912325745E0,2.404749298E0,9.917991083E0,7.873000503E-1,1.943803310E0,5.465187430E-1
9.931817083E0,-1.378932495E0,-7.776927795E0,2.879711609E0,9.928046083E0,1.374595642E0,2.214506626E0,6.438998580E-1
9.941873083E0,-1.666484528E0,-8.667425995E0,3.971092072E0,9.938102083E0,1.834719777E0,2.780142307E0,7.551376820E-1
9.951928083E0,-2.251917114E0,-9.326206055E0,4.924609222E0,9.948158083E0,1.966908932E0,3.562513351E0,8.511465192E-1
9.961984083E0,-2.014510803E0,-9.495204620E0,4.401147766E0,9.958213083E0,1.988936067E0,4.085484028E0,1.102143764E0
9.972039083E0,-1.841171265E0,-9.963430939E0,3.200045471E0,9.968269083E0,1.983130574E0,4.261019707E0,1.474777341E0
9.982095083E0,-1.663640442E0,-1.078806610E1,2.102827148E0,9.978324083E0,1.861100793E0,4.116396904E0,1.823187709E0
9.992150083E0,-1.206341400E0,-1.219184692E1,8.855584717E-1,9.988380083E0,1.437324166E0,3.414716482E0,2.127183914E0
1.000220608E1,-5.670208740E-1,-1.488818985E1,-1.091380463E0,9.998435083E0,1.146314859E0,2.119699240E0,1.986099362E0
1.001226108E1,7.515870667E-1,-1.426967606E1,-3.492088165E0,1.000849108E1,1.420862198E0,3.847416937E-1,1.230740309E0
1.002231708E1,2.507884827E0,-9.777816925E0,-3.600462799E0,1.001854608E1,2.120229721E0,-1.138054967E0,4.593651295E-1
1.003237208E1,2.764900360E0,-7.302414551E0,-5.700146484E-1,1.002860208E1,2.744348764E0,-1.727420807E0,-1.900858581E-1
1.004242808E1,2.158211975E0,-7.397317200E0,9.945318604E-1,1.003865708E1,2.920644522E0,-1.376410484E0,-5.326321125E-1
1.005248408E1,1.800455933E0,-7.334897003E0,1.402134247E0,1.004871308E1,2.604892969E0,-3.574666977E-1,-4.827481508E-1
1.006253833E1,1.599423981E0,-6.844965820E0,9.997709656E-1,1.005876733E1,1.958508015E0,7.976538539E-1,-2.145095319E-1
1.007259433E1,6.920109558E-1,-6.283483429E0,-1.037043457E0,1.006882333E1,1.343429089E0,1.321082711E0,-1.254813969E-1
1.008264933E1,-1.776805115E-1,-7.285948792E0,-2.581232300E0,1.007887833E1,1.067666888E0,1.156355977E0,-1.502975374E-1
1.009270533E1,-4.939727783E-1,-8.723110199E0,-2.598745880E0,1.008893433E1,1.095447898E0,6.913816333E-1,-1.863942891E-1
1.010276033E1,-4.123924255E-1,-9.636660461E0,-1.896107025E0,1.009898933E1,1.132695675E0,2.657280564E-1,-1.524618864E-1
1.011281633E1,-8.726852417E-2,-9.864187317E0,-1.271156616E0,1.010904533E1,1.112079620E0,2.090290189E-3,-1.076491401E-1
1.012287133E1,2.378553772E-1,-9.917326813E0,-8.810678101E-1,1.011910033E1,1.113272905E0,-6.983836740E-2,-1.383669376E-1
1.013292733E1,6.447093201E-1,-1.001013382E1,-4.049079895E-1,1.012915633E1,1.182811499E0,7.577129453E-2,-1.928602755E-1
1.014298233E1,9.711804199E-1,-1.012030472E1,-3.282673645E-1,1.013921133E1,1.230909109E0,3.367842138E-1,-2.065754384E-1
1.015303833E1,1.065484314E0,-9.911788330E0,-7.033872986E-1,1.014926733E1,1.226042747E0,5.953752995E-1,-1.969047040E-1
1.016309333E1,9.599537659E-1,-9.417516174E0,-1.234183502E0,1.015932333E1,1.205889583E0,7.462189198E-1,-1.673988402E-1
1.017314933E1,7.433541870E-1,-8.770411835E0,-1.792073364E0,1.016937833E1,1.147139192E0,7.659752965E-1,-1.239903718E-1
1.018320433E1,5.495072937E-1,-8.381969604E0,-2.558329926E0,1.017943433E1,1.107688785E0,5.761215091E-1,-7.290076464E-2
1.019326033E1,4.629872131E-1,-8.247549133E0,-3.071313171E0,1.018948933E1,1.103161931E0,2.136828601E-1,3.455938026E-2
