"time_acc","acc_x","acc_y","acc_z","time_gyro","gyro_x","gyro_y","gyro_z"
1.379887527E-2,6.881190491E0,-5.839806061E0,-2.896925812E0,1.379887527E-2,3.570967019E-1,-1.453681111E0,4.018449783E-2
2.375987498E-2,6.408024445E0,-4.117637329E0,-3.118914185E0,2.375987498E-2,4.303054512E-1,-1.495854616E0,-1.720426604E-2
3.371987538E-2,5.598657532E0,-2.120191040E0,-3.592529297E0,3.371987538E-2,4.048219323E-1,-1.612816095E0,-2.477743477E-1
4.368087510E-2,4.590803375E0,-5.002597046E-1,-3.101101227E0,4.368087510E-2,2.559576333E-1,-1.645053983E0,-5.708740354E-1
5.364087503E-2,3.452720032E0,2.037263489E-1,-2.536475372E0,5.364087503E-2,9.558687359E-2,-1.620283484E0,-8.968361616E-1
6.360087497E-2,2.494712219E0,8.562194824E-2,-1.665287018E0,6.360087497E-2,1.644632965E-2,-1.733846426E0,-1.082651258E0
7.356187515E-2,1.842967529E0,-8.111631775E-1,-1.012943573E0,7.356187515E-2,2.256320417E-1,-1.893116474E0,-1.040199399E0
8.352187509E-2,1.858984222E0,-1.942809906E0,-9.310638428E-2,8.352187509E-2,6.435629129E-1,-2.057374954E0,-7.455152273E-1
9.348287527E-2,2.114802246E0,-2.532284088E0,-2.070195007E-1,9.348287527E-2,1.109375358E0,-2.282834053E0,-4.636369944E-1
1.034428752E-1,2.540666656E0,-3.598965912E0,-4.300556946E-1,1.034428752E-1,1.522281170E0,-2.417213202E0,-2.749761343E-1
1.134038754E-1,2.922971649E0,-4.772226105E0,-7.927514648E-1,1.134038754E-1,1.688933492E0,-2.178687572E0,-2.438304387E-2
1.233638753E-1,2.948718109E0,-6.670428772E0,-7.800279236E-1,1.233638753E-1,1.682338715E0,-1.562648416E0,4.852452576E-1
1.333238753E-1,2.843037872E0,-8.985065460E0,-8.652008057E-1,1.333238753E-1,1.582150102E0,-8.969630599E-1,1.239816189E0
1.432848750E-1,3.410208435E0,-1.009425888E1,-1.650318146E0,1.432848750E-1,1.411418676E0,-3.214988410E-1,1.975953460E0
1.532445000E-1,4.656816101E0,-9.823771362E0,-2.787503357E0,1.532445000E-1,1.401583910E0,-1.194341332E-1,2.406695366E0
1.632055002E-1,5.406906281E0,-8.124654694E0,-3.487747192E0,1.632055002E-1,1.515699625E0,-1.138071269E-1,2.495681047E0
1.731655002E-1,5.661826172E0,-6.855593719E0,-4.573289795E0,1.731655002E-1,1.618919253E0,-3.132845461E-1,2.385096312E0
1.831265003E-1,5.162464600E0,-7.006779327E0,-5.841752014E0,1.831265003E-1,1.702992916E0,-1.071911216E0,2.286715984E0
1.930865003E-1,4.329147491E0,-7.817493439E0,-7.385641479E0,1.930865003E-1,1.687965989E0,-1.912589431E0,2.182960272E0
2.030475000E-1,3.956871643E0,-8.824449463E0,-8.681945801E0,2.030475000E-1,1.474065185E0,-2.235026836E0,2.014897823E0
2.130075004E-1,4.055666199E0,-9.924811249E0,-1.019350250E1,2.130075004E-1,8.817232847E-1,-2.039309263E0,1.925360680E0
2.229675003E-1,4.637655945E0,-1.101185074E1,-9.365574188E0,2.229675003E-1,2.497441024E-1,-1.568383336E0,1.834705353E0
2.329285000E-1,6.315067749E0,-1.053164932E1,-7.548353119E0,2.329285000E-1,-2.844260633E-1,-1.012571692E0,1.776826859E0
2.428885000E-1,7.200476532E0,-9.804611206E0,-6.304290161E0,2.428885000E-1,-6.493643522E-1,-6.074716449E-1,1.614689350E0
2.528495002E-1,6.925498352E0,-8.930429077E0,-5.901627502E0,2.528495002E-1,-9.309752584E-1,-4.968263507E-1,1.339854836E0
2.628095001E-1,4.703369293E0,-9.079369354E0,-5.674849091E0,2.628095001E-1,-1.157681108E0,-5.316512585E-1,1.330679178E0
2.727705003E-1,1.516346741E0,-1.061053528E1,-5.042264557E0,2.727705003E-1,-1.237911224E0,-6.990317106E-1,1.628712177E0
2.827305002E-1,-5.517526245E-1,-1.220397171E1,-3.382066956E0,2.827305002E-1,-9.617523551E-1,-6.972624660E-1,2.102338552E0
2.926905002E-1,-1.162482605E0,-1.182960022E1,1.926493835E-1,2.926905002E-1,-4.513727129E-1,-2.016327828E-1,2.524802446E0
3.026515003E-1,-5.227130127E-1,-1.234123627E1,3.035238190E0,3.026515003E-1,2.332877964E-1,4.115138948E-1,2.671333075E0
3.126115003E-1,1.009051666E0,-1.359128677E1,3.480562134E0,3.126115003E-1,6.144535542E-1,9.362086058E-1,2.721383572E0
3.225725000E-1,-3.465293884E-1,-1.365280884E1,5.313949585E-2,3.225725000E-1,6.980278492E-1,1.319045901E0,2.777511597E0
3.325325004E-1,-8.622070313E-1,-1.238988510E1,-8.821156311E-1,3.325325004E-1,6.750642061E-1,1.521591067E0,2.645050526E0
3.424935001E-1,4.155358887E-1,-1.191207870E1,-1.745220795E0,3.424935001E-1,4.383143485E-1,1.434857249E0,2.357027769E0
3.524535000E-1,1.246907043E0,-1.136331985E1,-2.668500824E0,3.524535000E-1,1.886110157E-1,8.847983479E-1,2.100039482E0
3.624135000E-1,5.899232483E-1,-1.002854553E1,-2.714604950E0,3.624135000E-1,8.714359999E-2,-7.728967071E-2,1.925525069E0
3.723745001E-1,-2.098635864E-1,-1.125524460E1,-2.445314941E0,3.723745001E-1,1.070137173E-1,-8.595740199E-1,2.043191671E0
3.823345001E-1,-7.328759766E-1,-1.286230270E1,-7.593708801E-1,3.823345001E-1,2.990569174E-1,-1.248752594E0,2.363520145E0
3.922955003E-1,7.438032532E-1,-1.313877777E1,1.150657196E0,3.922955003E-1,5.530492663E-1,-1.206665635E0,2.592687368E0
4.022555002E-1,2.516866150E0,-1.302172119E1,2.067500610E0,4.022555002E-1,8.231948614E-1,-8.973554373E-1,2.729709625E0
4.122165004E-1,4.700824585E0,-1.318922287E1,1.985022125E0,4.122165004E-1,1.222943544E0,-7.571232319E-1,2.590243578E0
4.221765003E-1,6.700366516E0,-1.469030136E1,2.591710510E0,4.221765003E-1,1.849321961E0,-7.186528444E-1,2.329432249E0
4.321375000E-1,6.212530975E0,-1.409004959E1,3.263663177E0,4.321375000E-1,2.565254211E0,-7.083599567E-1,2.121403217E0
4.420975000E-1,4.093238068E0,-1.298714310E1,2.440075836E0,4.420975000E-1,2.977925062E0,-7.846028209E-1,1.992184877E0
4.520575004E-1,1.867067413E0,-1.028391449E1,-1.553170166E0,4.520575004E-1,2.718975544E0,-1.139547348E0,1.968407989E0
4.620185001E-1,-2.347867584E0,-8.304131470E0,-5.295537872E0,4.620185001E-1,2.177293539E0,-1.403758645E0,2.263693571E0
4.719785000E-1,-7.262747040E0,-5.839506683E0,-4.926555176E0,4.719785000E-1,1.642452836E0,-1.105377197E0,2.585590124E0
4.819395002E-1,-1.093416229E1,-5.215454407E0,-3.957021332E0,4.819395002E-1,1.202584982E0,-6.539186239E-1,3.303541660E0
4.918995001E-1,-1.165970352E1,-5.467380524E0,-3.568429413E0,4.918995001E-1,7.828609347E-1,-2.168374509E-1,3.108691454E0
5.018605003E-1,-6.647376709E0,-3.726351013E0,-2.079625397E0,5.018605003E-1,3.423444331E-1,3.994726837E-1,2.057524204E0
5.118205003E-1,-4.096830597E0,-7.453450470E0,-2.221530304E0,5.118205003E-1,3.574365675E-1,-7.654204965E-2,2.185095310E0
5.217805002E-1,-7.909552002E-1,-7.776329041E0,-1.153650970E0,5.217805002E-1,5.178779960E-1,-6.546717882E-1,2.192279100E0
5.317415004E-1,2.165247345E0,-7.059619446E0,5.499563599E-1,5.317415004E-1,7.162185311E-1,-1.051595211E0,2.102539778E0
5.417015003E-1,4.995711365E0,-5.981261902E0,1.097517700E0,5.417015003E-1,8.771412969E-1,-1.146098137E0,1.017440200E0
5.516625000E-1,4.633464661E0,-8.008346558E0,1.626817017E0,5.516625000E-1,1.175846219E0,-9.446920156E-1,1.576291174E-1
5.616225000E-1,2.823877716E0,-9.456884308E0,2.091450806E0,5.616225000E-1,1.462927461E0,-3.170921206E-1,-3.414421678E-1
5.715835001E-1,-4.135899353E-1,-9.433532867E0,1.176403656E0,5.715835001E-1,1.598776579E0,2.940557003E-1,-5.220037103E-1
5.815435001E-1,-3.268303528E0,-1.036893768E1,-7.467970276E-1,5.815435001E-1,1.527495742E0,6.942901611E-1,-4.298969209E-1
5.915045002E-1,-5.014572144E0,-1.071606583E1,-1.989662476E0,5.915045002E-1,1.362893224E0,9.092709422E-1,-1.933693588E-1
6.014645002E-1,-6.021827545E0,-1.056772430E1,-2.567760315E0,6.014645002E-1,1.183551788E0,1.005453587E0,5.168915913E-2
6.114245001E-1,-5.684878235E0,-1.018916153E1,-3.038980408E0,6.114245001E-1,1.000007868E0,9.549520016E-1,2.185431123E-1
6.213855003E-1,-3.971092072E0,-9.905651093E0,-4.027824097E0,6.213855003E-1,6.886076927E-1,6.783444285E-1,2.461395562E-1
6.313455002E-1,-2.171833649E0,-9.677525482E0,-4.645290070E0,6.313455002E-1,3.167414367E-1,4.387997687E-1,2.019513249E-1
6.413065000E-1,-1.018781433E0,-9.249266052E0,-3.943399658E0,6.413065000E-1,2.652035467E-2,3.925586343E-1,1.022311896E-1
6.512665004E-1,-2.939886475E-1,-8.976233826E0,-3.339106293E0,6.512665004E-1,-7.078383118E-2,3.777967393E-1,-5.367931351E-2
6.612275001E-1,5.089416504E-3,-8.523575134E0,-2.479743347E0,6.612275001E-1,-1.159631759E-1,5.205574632E-1,-2.875468433E-1
6.711875000E-1,-2.676434326E-1,-8.493038635E0,-1.580413513E0,6.711875000E-1,-1.386948526E-1,7.958350778E-1,-6.015652418E-1
6.811475004E-1,-9.041198730E-1,-9.143436127E0,-8.406518555E-1,6.811475004E-1,-9.103326499E-2,1.012334943E0,-7.726676464E-1
6.911085001E-1,-1.824705505E0,-9.690698090E0,-2.764750671E-1,6.911085001E-1,3.272089735E-2,1.270442963E0,-5.201931000E-1
7.010685001E-1,-2.006128235E0,-9.818532257E0,1.484912109E-1,7.010685001E-1,2.644017935E-1,1.413412094E0,-2.764171660E-1
7.110295002E-1,-1.248852997E0,-9.413624268E0,-5.197192383E-1,7.110295002E-1,5.664919019E-1,1.154548526E0,-1.840249300E-1
7.209895002E-1,-3.061134338E-1,-9.202114105E0,-1.631607056E0,7.209895002E-1,7.846871614E-1,6.819198132E-1,-2.208392620E-1
7.309505004E-1,4.677772522E-1,-9.931547241E0,-2.721340942E0,7.309505004E-1,8.056643605E-1,3.304691315E-1,-3.491887152E-1
7.409105003E-1,1.120270386E0,-1.060843964E1,-3.618575134E0,7.409105003E-1,6.344547272E-1,2.018549293E-1,-4.913206697E-1
7.508715000E-1,1.647174683E0,-1.130883316E1,-4.341571655E0,7.508715000E-1,3.485353887E-1,2.016642541E-1,-6.707708240E-1
7.608315004E-1,1.739233246E0,-1.242610977E1,-4.681215363E0,7.608315004E-1,7.925610244E-2,1.948037446E-1,-8.213938475E-1
7.707915003E-1,1.246757355E0,-1.341121124E1,-4.047133942E0,7.707915003E-1,-1.856975257E-1,2.666342556E-1,-9.372419119E-1
7.807525001E-1,4.843927002E-1,-1.357437195E1,-3.195105743E0,7.807525001E-1,-4.845184088E-1,4.115312696E-1,-1.071126461E0
7.907125000E-1,-4.490661621E-4,-1.306138870E1,-2.752027130E0,7.907125000E-1,-7.536146045E-1,4.142612815E-1,-1.224642277E0
8.006735002E-1,-3.833528137E-1,-1.239662109E1,-2.922073517E0,8.006735002E-1,-9.666167498E-1,2.198532969E-1,-1.371198535E0
8.106335001E-1,-6.676116943E-1,-1.161449753E1,-2.494113464E0,8.106335001E-1,-1.228588223E0,1.502228230E-1,-1.589723706E0
8.205945003E-1,-1.182989960E0,-1.115285751E1,-1.898352356E0,8.205945003E-1,-1.477611661E0,-1.978161186E-2,-1.768794775E0
8.305545002E-1,-2.119143219E0,-1.102487366E1,-1.823208618E0,8.305545002E-1,-1.681239367E0,-2.298645377E-1,-1.815561533E0
8.405145002E-1,-3.296894073E0,-1.106918152E1,-1.317709808E0,8.405145002E-1,-1.803973913E0,-4.054977298E-1,-1.746016264E0
8.504755003E-1,-4.403393097E0,-1.108864105E1,-8.068222046E-1,8.504755003E-1,-1.887958884E0,-4.915244877E-1,-1.577535629E0
8.604355003E-1,-5.398074646E0,-1.097832047E1,-2.526745605E-1,8.604355003E-1,-1.927039266E0,-3.961482048E-1,-1.334027410E0
8.703965000E-1,-6.149362335E0,-1.123249191E1,7.174580383E-1,8.703965000E-1,-1.854799271E0,-2.661784366E-2,-1.046038151E0
8.803565004E-1,-7.313192139E0,-1.217178864E1,2.496508484E0,8.803565004E-1,-1.604384899E0,7.313907743E-1,-6.977696419E-1
8.903175001E-1,-8.639134827E0,-1.337768097E1,4.338428192E0,8.903175001E-1,-1.160194039E0,1.764687419E0,-2.799795568E-1
9.002775000E-1,-9.372310181E0,-1.416249893E1,3.990701294E0,9.002775000E-1,-7.184161544E-1,2.446672678E0,1.105356663E-1
9.102385002E-1,-8.150850220E0,-1.377151199E1,-3.517684937E-1,9.102385002E-1,-5.911799073E-1,2.331248999E0,2.552103102E-1
9.201985002E-1,-6.170468445E0,-1.293819489E1,-4.802313538E0,9.201985002E-1,-8.274390697E-1,1.997006416E0,1.504350454E-1
9.301585001E-1,-4.719385986E0,-1.274853928E1,-7.153324585E0,9.301585001E-1,-1.271717668E0,1.965920091E0,-5.378920585E-2
9.401195003E-1,-3.912563782E0,-1.254436386E1,-6.566544800E0,9.401195003E-1,-1.616921067E0,2.210910797E0,-1.654648334E-1
9.500795002E-1,-3.611240387E0,-1.175610306E1,-4.287683716E0,9.500795002E-1,-1.742676258E0,2.413284063E0,-1.564353853E-1
9.600405004E-1,-2.211351471E0,-1.077145065E1,-2.848726044E0,9.600405004E-1,-1.735352397E0,2.291031361E0,-2.092192024E-1
9.700005003E-1,2.206411743E-1,-9.610015869E0,-2.167342987E0,9.700005003E-1,-1.630688310E0,1.852033973E0,-4.463475943E-1
9.799615000E-1,2.929108887E0,-8.548423462E0,-1.529968414E0,9.799615000E-1,-1.415914774E0,1.350355744E0,-9.145943522E-1
9.899215000E-1,5.234015808E0,-7.878566437E0,-1.502874756E0,9.899215000E-1,-1.226750731E0,9.999961853E-1,-1.498121142E0
9.998815004E-1,5.762716370E0,-7.544760590E0,-2.602637787E0,9.998815004E-1,-1.150645614E0,6.896456480E-1,-1.909742236E0
1.009842500E0,4.710254974E0,-7.157665558E0,-3.297043762E0,1.009842500E0,-1.080495000E0,2.757505178E-1,-1.982159734E0
1.019802500E0,3.811224518E0,-6.350843353E0,-3.188519440E0,1.019802500E0,-9.971650839E-1,-2.306444198E-1,-1.814008236E0
1.029763500E0,3.621718597E0,-5.362748108E0,-3.307222595E0,1.029763500E0,-9.554527998E-1,-7.449039817E-1,-1.550770998E0
1.039723500E0,3.467539215E0,-4.668641510E0,-3.040477295E0,1.039723500E0,-8.712238669E-1,-1.247797251E0,-1.217485547E0
1.049684500E0,2.796933746E0,-4.266278229E0,-2.433040466E0,1.049684500E0,-7.467697859E-1,-1.562986374E0,-8.324676156E-1
1.059644500E0,1.807640991E0,-3.813619537E0,-1.564995575E0,1.059644500E0,-5.432014465E-1,-1.513592720E0,-6.194045544E-1
1.069605500E0,6.077362061E-1,-3.359014893E0,-1.403182068E0,1.069605500E0,-2.802038789E-1,-1.465280294E0,-5.341525078E-1
1.079565500E0,-6.653663635E-1,-2.924019470E0,-2.092049561E0,1.079565500E0,-4.638854414E-2,-1.497520566E0,-4.326616824E-1
1.089525500E0,-1.093625793E0,-2.720442810E0,-2.630928955E0,1.089525500E0,1.545493603E-1,-1.492421746E0,-3.151180148E-1
1.099486500E0,-6.963519287E-1,-2.938988342E0,-2.548450470E0,1.099486500E0,3.621214330E-1,-1.291574240E0,-1.643680781E-1
1.109446500E0,-2.486329651E-1,-3.430865479E0,-2.357297974E0,1.109446500E0,5.536253452E-1,-8.784670830E-1,2.847620659E-2
1.119407500E0,1.031355286E-1,-3.967349854E0,-2.535876617E0,1.119407500E0,7.088023424E-1,-3.688228726E-1,2.348796874E-1
1.129367500E0,2.609074402E-1,-4.330494690E0,-2.903212738E0,1.129367500E0,8.292627335E-1,1.192895398E-1,4.475554824E-1
1.139328500E0,2.833607483E-1,-4.584067383E0,-3.108286285E0,1.139328500E0,9.180229902E-1,5.325674415E-1,6.381826401E-1
1.149288625E0,2.580633545E-1,-4.965474243E0,-2.940634918E0,1.149288625E0,9.188536406E-1,8.513103127E-1,7.718080878E-1
1.159248625E0,2.402503967E-1,-5.815855865E0,-3.054398346E0,1.159248625E0,8.481385112E-1,9.733077288E-1,8.538575768E-1
1.169209625E0,5.312452698E-1,-7.313940582E0,-3.821852417E0,1.169209625E0,8.288907409E-1,8.173444867E-1,7.636272907E-1
1.179169625E0,1.336121521E0,-9.646988983E0,-5.768404541E0,1.179169625E0,7.394716740E-1,3.790421188E-1,4.153676927E-1
1.189130625E0,2.543061676E0,-1.310704376E1,-8.325686646E0,1.189130625E0,5.985414386E-1,-1.311756074E-1,-1.437462270E-1
1.199090625E0,3.345093842E0,-1.723396179E1,-9.452094269E0,1.199090625E0,4.552809596E-1,-4.055244029E-1,-6.108521223E-1
1.209051625E0,3.661984863E0,-1.924263474E1,-1.124027573E1,1.209051625E0,2.545981668E-2,-4.341307580E-1,-9.256966710E-1
1.219011625E0,4.039050751E0,-1.749546799E1,-1.339848770E1,1.219011625E0,-5.501187444E-1,-2.892342508E-1,-1.105066776E0
1.228972625E0,2.609523468E0,-1.308788361E1,-1.241697876E1,1.228972625E0,-9.619023204E-1,-1.963264048E-1,-8.776175976E-1
1.238932625E0,1.662143555E0,-7.821984100E0,-9.664652252E0,1.238932625E0,-1.136987567E0,-2.204917520E-1,-5.264495611E-1
1.248892625E0,2.036515045E0,-3.614533539E0,-6.264323273E0,1.248892625E0,-8.970117569E-1,-9.118381888E-2,-3.391758204E-1
1.258853625E0,1.100960541E0,-1.575922852E0,-1.861828308E0,1.258853625E0,-3.175638616E-1,1.124163568E-1,-3.004792333E-1
1.268813625E0,-1.407073975E0,-2.270179138E0,-7.035369873E-1,1.268813625E0,1.412244886E-1,7.575528324E-2,-1.604545116E-1
1.278774625E0,-3.963607635E0,-6.062991943E0,-1.347946930E0,1.278774625E0,4.839809239E-1,-4.118873738E-3,1.789812595E-1
1.288734625E0,-4.311484222E0,-1.201716019E1,-1.797611847E0,1.288734625E0,7.280825377E-1,-1.067405865E-1,4.861917794E-1
1.298695625E0,-3.800596619E0,-2.022234741E1,-5.920188904E-1,1.298695625E0,1.319243073E0,-2.704223096E-1,7.533257008E-1
1.308655625E0,-3.652704163E0,-2.755784317E1,5.588778076E0,1.308655625E0,1.814888835E0,2.014384419E-1,6.291760802E-1
1.318615625E0,-1.566791840E0,-3.005016037E1,2.887794800E0,1.318615625E0,1.519573450E0,5.266290307E-1,-6.108591333E-2
1.328576625E0,1.900747375E0,-2.358360764E1,-4.680616608E0,1.328576625E0,4.802451134E-1,1.042264234E-2,-8.054308891E-1
1.338536625E0,2.948867798E-2,-1.268701721E1,-5.571114807E0,1.338536625E0,-5.494902134E-1,-3.068192303E-1,-8.238162994E-1
1.348497625E0,-2.202070770E0,-6.956932983E0,-2.827320557E0,1.348497625E0,-1.180091619E0,-2.906024456E-1,-4.578212202E-1
1.358457625E0,-2.405198364E0,-4.172722778E0,8.460406494E-1,1.358457625E0,-1.196444631E0,3.999073058E-2,1.962917112E-2
1.368418625E0,-2.655028839E0,-2.921624451E0,3.884871368E0,1.368418625E0,-6.575734615E-1,4.388014972E-1,4.888123572E-1
1.378378625E0,-2.942431183E0,-2.752326508E0,3.659440155E0,1.378378625E0,2.094808370E-1,3.495387137E-1,9.021989107E-1
1.388339625E0,-3.064277802E0,-3.899391174E0,2.332599335E0,1.388339625E0,9.864721894E-1,1.051830277E-1,1.312009096E0
1.398299625E0,-3.103645935E0,-6.277196503E0,2.036515045E0,1.398299625E0,1.543438554E0,-7.033754373E-4,1.716182709E0
1.408259625E0,-2.436333618E0,-8.125403137E0,1.614093475E0,1.408259625E0,1.879731536E0,-6.231081486E-2,1.920945168E0
1.418220625E0,-1.061742096E0,-9.959389343E0,7.090754700E-1,1.418220625E0,1.916129827E0,-1.757384241E-1,1.832353592E0
1.428180625E0,6.566844177E-1,-1.269480103E1,-1.523831177E-1,1.428180625E0,1.773024797E0,-3.353611231E-1,1.332841158E0
1.438141625E0,3.143014069E0,-1.527633270E1,-5.881269836E-1,1.438141625E0,1.620129466E0,-4.747468531E-1,4.350323975E-1
1.448101625E0,3.564537506E0,-1.467757782E1,-1.212478638E0,1.448101625E0,1.478897691E0,-4.385907054E-1,-2.320433855E-1
1.458062625E0,1.377884674E0,-1.293145889E1,-1.517693939E0,1.458062625E0,1.401621580E0,-3.620314971E-2,-3.321121633E-1
1.468022625E0,-1.199904785E0,-1.217867432E1,-9.924362183E-1,1.468022625E0,1.455396891E0,7.246491909E-1,-3.378199879E-3
1.477982625E0,-3.456162872E0,-1.151270920E1,-3.035687256E-1,1.477982625E0,1.566724539E0,1.671840906E0,4.321260452E-1
1.487943625E0,-4.129762115E0,-1.019155655E1,-1.681004333E-1,1.487943625E0,1.577516437E0,2.532548904E0,6.983020902E-1
1.497903625E0,-3.747307434E0,-8.415499878E0,-1.570833435E0,1.497903625E0,1.348107219E0,2.733080864E0,7.906111479E-1
1.507864625E0,-2.973267059E0,-6.727460175E0,-4.155807953E0,1.507864625E0,8.981240988E-1,2.160294056E0,7.354536653E-1
1.517824625E0,-2.123633881E0,-5.397475891E0,-5.086572418E0,1.517824625E0,3.762709796E-1,1.441968203E0,6.071278453E-1
1.527785625E0,-1.431473236E0,-4.707710266E0,-3.941004639E0,1.527785625E0,-2.671107650E-2,1.007633448E0,5.414873362E-1
1.537745625E0,-6.719526672E-1,-4.716541901E0,-1.850601654E0,1.537745625E0,-1.529785693E-1,8.735191822E-1,5.570935011E-1
1.547706625E0,8.981323242E-2,-4.927602997E0,-8.472381592E-2,1.547706625E0,-3.020630777E-2,8.010476232E-1,6.192513704E-1
1.557666625E0,6.233038330E-1,-5.123994598E0,7.189549255E-1,1.557666625E0,1.901393831E-1,6.331342459E-1,6.585546732E-1
1.567626625E0,1.034947815E0,-5.380561066E0,1.356628876E0,1.567626625E0,4.126182795E-1,5.791485310E-1,5.884120464E-1
1.577587625E0,1.166823578E0,-5.852230225E0,2.070793762E0,1.577587625E0,6.846227646E-1,6.731328964E-1,5.326761007E-1
1.587547625E0,6.994953918E-1,-7.205416260E0,2.045945435E0,1.587547625E0,1.002221227E0,8.251426220E-1,5.833219886E-1
1.597508625E0,2.177970886E-1,-8.234975281E0,1.699266357E0,1.597508625E0,1.274974704E0,1.062831879E0,6.684345007E-1
1.607468625E0,-1.143621826E-1,-8.949289856E0,6.767427063E-1,1.607468625E0,1.369073033E0,1.216303468E0,7.489815354E-1
1.617429625E0,-6.415658569E-1,-9.788444824E0,-9.554631042E-1,1.617429625E0,1.312221885E0,1.276312828E0,8.971642852E-1
1.627389625E0,-7.593708801E-1,-1.007045837E1,-2.786904602E0,1.627389625E0,1.156906605E0,1.151766658E0,1.007995963E0
1.637349625E0,-8.876541138E-2,-9.830207977E0,-4.818629608E0,1.637349625E0,8.739307523E-1,8.179590702E-1,1.036017418E0
1.647310625E0,9.156459045E-1,-9.568103027E0,-6.338868256E0,1.647310625E0,5.190032721E-1,4.516798854E-1,9.811421633E-1
1.657270625E0,2.043400726E0,-9.441166992E0,-6.336024170E0,1.657270625E0,2.050178498E-1,3.760925233E-1,8.575606942E-1
1.667231625E0,2.559078369E0,-9.480086060E0,-4.869972839E0,1.667231625E0,4.325105622E-2,6.094411016E-1,7.572847009E-1
1.677191625E0,3.223396912E0,-9.798174591E0,-3.321293335E0,1.677191625E0,-3.988483548E-2,7.616490722E-1,5.736926198E-1
1.687152625E0,3.757037201E0,-1.019978943E1,-2.425106964E0,1.687152625E0,-4.408969730E-2,7.405379415E-1,4.215419590E-1
1.697112625E0,3.135829010E0,-1.054197784E1,-1.483864288E0,1.697112625E0,9.191790968E-2,6.769933701E-1,3.635614812E-1
1.707072625E0,3.412304077E0,-1.088880661E1,-1.616488495E0,1.707072625E0,2.590421736E-1,3.557626307E-1,2.524392307E-1
1.717033625E0,3.896696777E0,-1.106933121E1,-2.211501160E0,1.717033625E0,4.319330156E-1,1.071685180E-1,1.321508735E-1
1.726993625E0,3.901786194E0,-1.118399277E1,-2.545007629E0,1.726993625E0,5.494543314E-1,-3.419619752E-4,6.051397696E-2
1.736954625E0,3.662284241E0,-1.134086655E1,-3.429368591E0,1.736954625E0,4.922440350E-1,-1.944344491E-2,-2.505306527E-2
1.746914625E0,3.365002441E0,-1.163934586E1,-4.553081818E0,1.746914625E0,2.807943523E-1,2.383292280E-2,-1.126095504E-1
1.756875625E0,2.361938324E0,-1.144774429E1,-4.376149750E0,1.756875625E0,5.481021479E-2,1.325840950E-1,-1.609753370E-1
1.766835625E0,1.654808807E0,-1.095945969E1,-3.828588409E0,1.766835625E0,-9.304662794E-2,2.003138661E-1,-2.536453307E-1
1.776796625E0,1.365011444E0,-1.049542465E1,-3.256478119E0,1.776796625E0,-2.171088904E-1,2.563461065E-1,-4.308361709E-1
1.786756625E0,1.026265869E0,-1.053853500E1,-2.805316315E0,1.786756625E0,-3.852198720E-1,3.169420660E-1,-6.063646078E-1
1.796716625E0,8.608598328E-1,-1.069046906E1,-2.612816620E0,1.796716625E0,-6.129307747E-1,2.766769528E-1,-7.751107216E-1
1.806677625E0,9.759704590E-1,-1.063328796E1,-2.294877777E0,1.806677625E0,-8.230260015E-1,1.756792068E-1,-9.926073551E-1
1.816637625E0,6.289920044E-1,-1.069870193E1,-1.820963287E0,1.816637625E0,-9.728463888E-1,6.981217116E-2,-1.217812538E0
1.826598625E0,-1.393601990E-1,-1.108235413E1,-1.551523590E0,1.826598625E0,-1.113489270E0,-1.546752751E-1,-1.400858521E0
1.836558625E0,-5.008584595E-1,-1.152857620E1,-1.269210663E0,1.836558625E0,-1.197256207E0,-4.843468666E-1,-1.548292756E0
1.846519625E0,-8.674461365E-1,-1.157587784E1,-8.069718933E-1,1.846519625E0,-1.192577124E0,-7.066020370E-1,-1.682704449E0
1.856479625E0,-1.715283051E0,-1.193288544E1,-2.483335876E-1,1.856479625E0,-1.185080767E0,-6.733995676E-1,-1.773854136E0
1.866439625E0,-3.020419006E0,-1.289613235E1,3.659889221E-1,1.866439625E0,-1.172572136E0,-4.254179597E-1,-1.745914578E0
1.876400625E0,-4.898114319E0,-1.441173065E1,1.287322998E0,1.876400625E0,-1.125679135E0,2.737310156E-2,-1.496125340E0
1.886360625E0,-6.888375549E0,-1.581117050E1,1.760638733E0,1.886360625E0,-1.051038742E0,5.224813819E-1,-1.052513599E0
1.896321625E0,-7.882907410E0,-1.651530624E1,1.803000641E0,1.896321625E0,-9.329702854E-1,8.114811182E-1,-5.757443905E-1
1.906281625E0,-6.978488159E0,-1.606384506E1,7.553292847E-1,1.906281625E0,-8.252949119E-1,6.204661131E-1,-2.976898551E-1
1.916242625E0,-4.383484497E0,-1.416624115E1,-1.295406189E0,1.916242625E0,-7.976121902E-1,6.146700308E-2,-3.223811984E-1
1.926202625E0,-2.725532227E0,-1.242715759E1,-2.584226074E0,1.926202625E0,-8.628511429E-1,-3.845877051E-1,-4.263251722E-1
1.936162625E0,-2.233954468E0,-1.187241119E1,-3.259471893E0,1.936162625E0,-1.099122643E0,-4.314017594E-1,-4.539248347E-1
1.946123625E0,-1.412013702E0,-1.150073410E1,-4.198469238E0,1.946123625E0,-1.510373354E0,1.092079561E-2,-5.003093481E-1
1.956083625E0,-5.625302124E-1,-1.096155533E1,-4.383933563E0,1.956083625E0,-1.929117203E0,7.600177526E-1,-5.821123719E-1
1.966044625E0,-5.502557373E-1,-1.100242035E1,-3.265758820E0,1.966044625E0,-2.089084625E0,1.513410568E0,-6.167150736E-1
1.976004625E0,-6.960525513E-2,-1.053823563E1,-2.252366180E0,1.976004625E0,-1.945646405E0,1.828829765E0,-6.788244247E-1
1.985965625E0,1.107696533E0,-1.050874695E1,-1.843416595E0,1.985965625E0,-1.549327374E0,1.449084878E0,-7.488796711E-1
1.995925625E0,3.048410797E0,-9.951605530E0,-1.286724243E0,1.995925625E0,-1.026974797E0,5.975021124E-1,-9.735633731E-1
2.005886625E0,5.041965179E0,-9.662556610E0,-9.879455566E-1,2.005886625E0,-6.924338937E-1,-6.800823659E-2,-1.348150015E0
2.015846625E0,5.260361023E0,-9.690698090E0,-1.867815857E0,2.015846625E0,-6.894026399E-1,-4.208656251E-1,-1.601103306E0
2.025806625E0,3.674858093E0,-9.337283020E0,-3.127895508E0,2.025806625E0,-8.383899927E-1,-7.088260055E-1,-1.566111207E0
2.035767625E0,2.437082062E0,-8.403973846E0,-4.003424835E0,2.035767625E0,-9.739989042E-1,-1.207553864E0,-1.364364624E0
2.045727625E0,1.650467834E0,-7.170987854E0,-4.000431061E0,2.045727625E0,-1.043436289E0,-1.775027871E0,-1.081528306E0
2.055688625E0,8.164022827E-1,-5.961502991E0,-2.712958374E0,2.055688625E0,-9.624896646E-1,-2.069820166E0,-7.925055027E-1
2.065648625E0,3.219804382E-1,-4.947511597E0,-1.109941864E0,2.065648625E0,-7.642279863E-1,-2.099559307E0,-7.126886845E-1
2.075609625E0,1.109193420E-1,-4.276606750E0,-7.589218140E-1,2.075609625E0,-5.490344763E-1,-2.128161907E0,-7.270093560E-1
2.085569625E0,-8.476872253E-1,-4.103865967E0,-8.626560974E-1,2.085569625E0,-3.936555684E-1,-2.065899134E0,-7.228764296E-1
2.095529625E0,-1.029259644E0,-3.991000671E0,-9.894424438E-1,2.095529625E0,-2.449824363E-1,-1.927381158E0,-7.101013064E-1
2.105490625E0,-8.649014282E-1,-3.672313385E0,-1.162632294E0,2.105490625E0,-4.899775237E-2,-1.757005453E0,-7.110661268E-1
2.115450625E0,-7.520361328E-1,-3.658991089E0,-1.516646118E0,2.115450625E0,1.818723232E-1,-1.520734429E0,-6.340731382E-1
2.125411625E0,-6.087840271E-1,-3.730841675E0,-1.725461884E0,2.125411625E0,3.901890516E-1,-1.181106806E0,-4.861910343E-1
2.135371625E0,-4.899311829E-1,-3.885619812E0,-1.769769745E0,2.135371625E0,5.128726959E-1,-7.264451385E-1,-2.700568438E-1
2.145332625E0,-5.017565918E-1,-4.161945190E0,-1.790576477E0,2.145332625E0,5.502703786E-1,-1.823434681E-1,-2.578637376E-2
2.155293250E0,-4.183799744E-1,-4.392765198E0,-1.922901306E0,2.155293250E0,5.913166404E-1,3.201741874E-1,1.922538280E-1
2.165253250E0,-7.185058594E-3,-4.702920227E0,-1.939217377E0,2.165253250E0,6.982894540E-1,6.997518539E-1,3.540781438E-1
2.175214250E0,5.631289673E-1,-5.235213318E0,-1.902244263E0,2.175214250E0,8.307888508E-1,9.288960695E-1,4.805472791E-1
2.185174250E0,1.115630035E0,-6.087391205E0,-2.206860809E0,2.185174250E0,9.029431939E-1,9.600207210E-1,5.433683395E-1
2.195135250E0,1.844913483E0,-7.240593109E0,-3.389551392E0,2.195135250E0,8.153768778E-1,6.849545836E-1,5.081203580E-1
2.205095250E0,2.742746429E0,-9.000034332E0,-5.460494843E0,2.205095250E0,5.632330179E-1,1.602164954E-1,3.202239871E-1
2.215056250E0,3.771856384E0,-1.133323242E1,-8.444389801E0,2.215056250E0,1.974207759E-1,-4.716376662E-1,6.252457947E-2
2.225016250E0,4.386029205E0,-1.384545822E1,-1.050111282E1,2.225016250E0,-1.215617433E-1,-9.394924641E-1,-1.955258697E-1
2.234977250E0,5.155279541E0,-1.541569290E1,-1.148786087E1,2.234977250E0,-3.664995432E-1,-1.245867729E0,-3.913345635E-1
2.244937250E0,5.476361847E0,-1.464434692E1,-1.124057510E1,2.244937250E0,-5.757606030E-1,-1.244481087E0,-5.175627470E-1
2.254897250E0,4.862937469E0,-1.197419952E1,-1.021086639E1,2.254897250E0,-7.576376200E-1,-1.247826695E0,-5.219768286E-1
2.264858250E0,4.409380646E0,-8.437653809E0,-8.094118195E0,2.264858250E0,-8.145056963E-1,-1.234854937E0,-4.393970370E-1
2.274818250E0,3.729195099E0,-5.480403442E0,-5.741161194E0,2.274818250E0,-7.854892612E-1,-9.965354800E-1,-3.126777709E-1
2.284779250E0,3.268153839E0,-3.182831268E0,-4.449796600E0,2.284779250E0,-4.985525608E-1,-7.610172033E-1,-2.895689905E-1
2.294739250E0,2.373763733E0,-1.900148621E0,-1.880240021E0,2.294739250E0,4.295490310E-2,-4.317417741E-1,-3.766294718E-1
2.304700250E0,4.813989258E-1,-2.374512177E0,-3.513194275E-1,2.304700250E0,5.096027851E-1,-1.320743859E-1,-3.852309287E-1
2.314660250E0,-1.695224762E0,-4.899311829E0,-5.089416504E-2,2.314660250E0,8.564850092E-1,1.589382738E-1,-2.227243036E-1
2.324620250E0,-3.085234222E0,-1.016476227E1,-8.608598328E-1,2.324620250E0,1.014255762E0,3.190515041E-1,4.437370598E-2
2.334581250E0,-3.641477509E0,-1.854748032E1,-3.753444672E0,2.334581250E0,1.482603073E0,-1.811510772E-1,6.514858603E-1
2.344541250E0,-6.491550751E0,-3.095712433E1,1.727557526E0,2.344541250E0,2.256062984E0,-2.650760710E-1,1.612428784E0
2.354502250E0,-5.672005005E0,-3.509646652E1,3.348686371E0,2.354502250E0,1.990682483E0,4.002142325E-2,1.686862230E0
2.364462250E0,-4.028123474E-1,-2.694022751E1,-3.847000122E0,2.364462250E0,6.373755336E-1,5.564419031E-1,6.794565916E-1
2.374423250E0,5.258564758E-1,-1.571402252E1,-6.590345306E0,2.374423250E0,-8.280960917E-1,4.886702001E-1,-1.675685495E-1
2.384383250E0,-2.226470032E0,-8.020920410E0,-4.596491547E0,2.384383250E0,-1.964852452E0,1.990018934E-1,-2.503867447E-1
2.394343250E0,-3.207380219E0,-4.914580078E0,-6.590794373E-1,2.394343250E0,-2.495820284E0,2.898522019E-1,-1.287769619E-2
2.404304250E0,-2.494562531E0,-3.683240662E0,4.430037689E0,2.404304250E0,-2.106449366E0,3.174374700E-1,1.903252304E-1
2.414264250E0,-2.147883453E0,-2.982398071E0,6.870861969E0,2.414264250E0,-8.429338336E-1,3.985637054E-2,4.305976629E-1
2.424225250E0,-2.037712555E0,-2.557431793E0,6.320157166E0,2.424225250E0,5.608873367E-1,-1.523639411E-1,7.797977328E-1
2.434185250E0,-1.441652069E0,-3.489094391E0,4.333488464E0,2.434185250E0,1.579364181E0,-2.553559095E-2,1.189960241E0
2.444146250E0,-4.933740234E-1,-5.894741821E0,1.368454285E0,2.444146250E0,2.089686394E0,1.326109022E-1,1.448558092E0
2.454106250E0,1.355581055E0,-9.833501129E0,-1.228345642E0,2.454106250E0,2.200147152E0,8.646166883E-3,1.455936551E0
2.464067250E0,3.794160004E0,-1.570653809E1,-1.959275665E0,2.464067250E0,2.081330299E0,-1.963075101E-1,1.029374599E0
2.474027250E0,6.160439301E0,-1.789184372E1,-2.213596802E0,2.474027250E0,1.788890958E0,-3.903545439E-1,3.311597407E-1
2.483987250E0,5.586532745E0,-1.567510345E1,-2.941982117E0,2.483987250E0,1.361717343E0,-4.379923642E-1,-5.493123829E-2
2.493948250E0,3.087030487E0,-1.323906921E1,-2.958747253E0,2.493948250E0,9.510948658E-1,-1.851245612E-1,-7.085753977E-2
2.503908250E0,9.327104187E-1,-1.218750595E1,-2.187101898E0,2.503908250E0,7.119198442E-1,2.753623426E-1,4.549889266E-2
2.513869250E0,-4.816983032E-1,-1.121168518E1,-1.015488281E0,2.513869250E0,7.465441227E-1,8.960431218E-1,1.241105720E-1
2.523829250E0,-1.387764130E0,-1.018646713E1,6.541397095E-1,2.523829250E0,9.888273478E-1,1.709614038E0,2.195481360E-1
2.533789250E0,-2.534978485E0,-9.126970367E0,1.770518188E0,2.533789250E0,1.235231519E0,2.502143383E0,3.516795635E-1
2.543750250E0,-3.166814575E0,-7.904013519E0,2.591111755E-1,2.543750250E0,1.276513219E0,2.649678230E0,4.682061970E-1
2.553710250E0,-3.141666870E0,-6.352190552E0,-2.799777832E0,2.553710250E0,1.079620838E0,1.966235518E0,5.317055583E-1
2.563671250E0,-3.063080292E0,-4.894372101E0,-4.659211121E0,2.563671250E0,7.285616994E-1,1.135855198E0,5.540779829E-1
2.573631250E0,-2.399510193E0,-4.085454254E0,-3.998185730E0,2.573631250E0,4.372911751E-1,7.389834523E-1,5.698776245E-1
2.583592250E0,-1.214723969E0,-4.081861725E0,-2.274669800E0,2.583592250E0,3.236327767E-1,7.218776941E-1,6.076756120E-1
2.593552250E0,-6.541397095E-2,-4.407285004E0,-1.387165375E0,2.593552250E0,3.161787093E-1,6.966986060E-1,6.106042266E-1
2.603513250E0,7.075785828E-1,-4.668491821E0,-8.416996765E-1,2.603513250E0,3.465376794E-1,5.876035690E-1,5.770358443E-1
2.613473250E0,1.081800385E0,-5.143154755E0,1.598675537E-1,2.613473250E0,4.394475222E-1,4.241470098E-1,5.398502350E-1
2.623433250E0,1.068029022E0,-6.036047974E0,1.449735260E0,2.623433250E0,6.645216942E-1,3.995811939E-1,5.359691978E-1
2.633394250E0,9.994715881E-1,-7.310198364E0,2.352208557E0,2.633394250E0,9.716273546E-1,5.956664085E-1,5.710528493E-1
2.643354250E0,1.034947815E0,-8.285121002E0,1.955234070E0,2.643354250E0,1.232700467E0,8.750455379E-1,6.470671892E-1
2.653315250E0,9.204359436E-1,-9.526788940E0,5.936654663E-1,2.653315250E0,1.393625021E0,1.012404084E0,7.704379559E-1
2.663275250E0,5.812413025E-1,-1.055500076E1,-9.298663330E-1,2.663275250E0,1.411024570E0,1.117720962E0,9.298364520E-1
2.673236250E0,3.350033569E-1,-1.127290787E1,-2.752326508E0,2.673236250E0,1.227371454E0,1.198788643E0,1.052722096E0
2.683196250E0,6.328839111E-1,-1.122485779E1,-4.718338165E0,2.683196250E0,8.997541666E-1,1.067151308E0,1.099322319E0
2.693156250E0,1.212628326E0,-1.063613205E1,-6.301146698E0,2.693156250E0,4.871178567E-1,6.400400400E-1,1.056500196E0
2.703117250E0,1.834435272E0,-9.780211945E0,-6.089486847E0,2.703117250E0,1.439777911E-1,2.943937182E-1,9.454420805E-1
2.713077250E0,2.166295166E0,-9.183103638E0,-4.132606201E0,2.713077250E0,-3.433935344E-2,2.310881019E-1,8.249147534E-1
2.723038250E0,2.499202881E0,-8.912466431E0,-2.667453003E0,2.723038250E0,-7.137593627E-2,3.449736834E-1,7.049273849E-1
2.732998250E0,2.564467163E0,-8.888067169E0,-1.494192810E0,2.732998250E0,-9.939854965E-3,5.067878366E-1,5.684653521E-1
2.742959250E0,2.526745605E0,-9.182205505E0,-6.367758179E-1,2.742959250E0,1.035046801E-1,5.987291932E-1,4.391614199E-1
2.752919250E0,2.464175720E0,-9.383836212E0,-3.242257690E-1,2.752919250E0,2.650304437E-1,5.640174747E-1,3.185774684E-1
2.762879250E0,2.656226349E0,-9.433981934E0,-8.330177307E-1,2.762879250E0,4.124896824E-1,3.853161931E-1,1.912405342E-1
2.772840250E0,3.204985199E0,-9.518406372E0,-1.714534607E0,2.772840250E0,5.080363154E-1,2.092325687E-1,5.176895484E-2
2.782800250E0,3.734733582E0,-9.993967438E0,-2.888692932E0,2.782800250E0,5.199688673E-1,1.468631923E-1,-4.974062741E-2
2.792761250E0,3.883823547E0,-1.064226929E1,-3.691473541E0,2.792761250E0,4.406779110E-1,2.603472769E-1,-1.431495398E-1
2.802721250E0,3.888763275E0,-1.155177795E1,-4.383783875E0,2.802721250E0,2.827319503E-1,3.686788082E-1,-2.416106015E-1
2.812682250E0,2.946472778E0,-1.200458633E1,-4.442461853E0,2.812682250E0,9.341408312E-2,4.194633663E-1,-2.908540964E-1
2.822642250E0,2.091899872E0,-1.206865311E1,-4.098177795E0,2.822642250E0,-5.004427955E-2,3.616264164E-1,-2.759507895E-1
2.832602250E0,1.823807373E0,-1.206146805E1,-3.443289642E0,2.832602250E0,-9.641556442E-2,3.050307631E-1,-2.379444242E-1
2.842563250E0,1.958826599E0,-1.199814972E1,-2.846929779E0,2.842563250E0,-1.420850456E-1,2.672157288E-1,-2.798463404E-1
2.852523250E0,2.124681702E0,-1.202644089E1,-2.629731445E0,2.852523250E0,-2.853706479E-1,2.326414287E-1,-3.620647192E-1
2.862484250E0,2.265389099E0,-1.175999496E1,-2.510130157E0,2.862484250E0,-5.003471375E-1,1.806514561E-1,-4.958401024E-1
2.872444250E0,2.571652222E0,-1.148067581E1,-2.194286957E0,2.872444250E0,-7.104774117E-1,1.172283292E-1,-6.889615655E-1
2.882405250E0,2.572400665E0,-1.129446304E1,-1.932930450E0,2.882405250E0,-8.964680433E-1,1.892386004E-2,-9.191548228E-1
2.892365250E0,1.967658234E0,-1.099014587E1,-1.803449707E0,2.892365250E0,-1.067362189E0,-1.129883006E-1,-1.141104937E0
2.902325250E0,1.215622101E0,-1.046997757E1,-1.398392029E0,2.902325250E0,-1.227368593E0,-2.377235740E-1,-1.324518204E0
2.912286250E0,5.894741821E-1,-9.693991241E0,-8.961863708E-1,2.912286250E0,-1.257154703E0,-3.999934793E-1,-1.487426996E0
2.922246250E0,-2.142045593E-1,-9.054820404E0,-3.806584167E-1,2.922246250E0,-1.222663879E0,-5.652775168E-1,-1.616543412E0
2.932207250E0,-1.423090668E0,-9.148675232E0,1.824705505E-1,2.932207250E0,-1.212653756E0,-5.818499923E-1,-1.657136202E0
2.942167250E0,-2.714455261E0,-1.029244675E1,7.855664063E-1,2.942167250E0,-1.216478229E0,-4.234408736E-1,-1.587412238E0
2.952128250E0,-3.943399658E0,-1.196072754E1,1.014889526E0,2.952128250E0,-1.257717609E0,-2.224224955E-1,-1.380614638E0
2.962088250E0,-5.197192383E0,-1.361912888E1,9.848020935E-1,2.962088250E0,-1.232487082E0,1.689422503E-2,-1.099402189E0
2.972048250E0,-5.677693176E0,-1.516915558E1,1.140478363E0,2.972048250E0,-1.054353356E0,1.609880477E-1,-7.763606906E-1
2.982009250E0,-5.258115692E0,-1.645064072E1,5.852828979E-1,2.982009250E0,-8.040766120E-1,1.376614273E-1,-4.831034839E-1
2.991969250E0,-3.645818481E0,-1.660032944E1,-1.452429657E0,2.991969250E0,-6.855786443E-1,-1.245578527E-1,-3.740111291E-1
3.001930250E0,-1.447489929E0,-1.554831711E1,-4.300706635E0,3.001930250E0,-8.790528178E-1,-3.282561302E-1,-4.927497506E-1
3.011890250E0,-9.565109253E-2,-1.449465820E1,-5.983357544E0,3.011890250E0,-1.321964025E0,-1.127061546E-1,-6.577705145E-1
3.021851250E0,-2.969824219E-1,-1.378902557E1,-5.496569824E0,3.021851250E0,-1.677277923E0,4.346778691E-1,-6.624038815E-1
3.031811250E0,-3.626957703E-1,-1.287996597E1,-4.365372162E0,3.031811250E0,-1.857743621E0,1.078848839E0,-6.105482578E-1
3.041772250E0,8.457412720E-2,-1.155058044E1,-3.424129486E0,3.041772250E0,-1.844370008E0,1.480870128E0,-5.561337471E-1
3.051732250E0,4.134402466E-1,-1.029663803E1,-2.550995178E0,3.051732250E0,-1.642102718E0,1.337496281E0,-5.118171573E-1
3.061692250E0,1.720821533E0,-9.165889435E0,-2.145338745E0,3.061692250E0,-1.360323787E0,5.042928457E-1,-6.291490793E-1
3.071653250E0,3.995042267E0,-8.499325562E0,-1.733096008E0,3.071653250E0,-1.097826242E0,-4.111661315E-1,-8.974167705E-1
3.081613250E0,5.184917908E0,-8.599167938E0,-7.891589355E-1,3.081613250E0,-9.856579304E-1,-5.833885074E-1,-1.159904599E0
3.091574250E0,5.006788330E0,-8.346792755E0,-8.830137634E-1,3.091574250E0,-9.344006181E-1,-6.123695374E-1,-1.342231750E0
3.101534250E0,4.005969543E0,-7.783214722E0,-2.122436371E0,3.101534250E0,-9.073402286E-1,-8.978119493E-1,-1.354437590E0
3.111495250E0,2.855761414E0,-7.127877502E0,-2.840642853E0,3.111495250E0,-8.680290580E-1,-1.377926469E0,-1.220263004E0
3.121455250E0,1.824705505E0,-6.311026154E0,-2.748733978E0,3.121455250E0,-7.820835114E-1,-1.978121758E0,-1.025393128E0
3.131415250E0,1.137933655E0,-5.438939667E0,-1.862277374E0,3.131415250E0,-6.325509548E-1,-2.257137299E0,-8.815060258E-1
3.141376250E0,9.372010803E-1,-4.769531708E0,-8.273295593E-1,3.141376250E0,-4.395290315E-1,-2.252411604E0,-8.733308911E-1
3.151336167E0,3.462300110E-1,-4.395908661E0,-7.688012695E-1,3.151336167E0,-2.522521615E-1,-2.151786566E0,-8.890782595E-1
3.161297167E0,-3.975732422E-1,-4.133055267E0,-1.061143341E0,3.161297167E0,-8.129131794E-2,-2.046206236E0,-8.637039065E-1
3.171257167E0,-8.587641907E-1,-3.865711212E0,-1.274449768E0,3.171257167E0,1.072176620E-1,-1.908742666E0,-7.983610630E-1
3.181218167E0,-8.622070313E-1,-3.597618713E0,-1.424587555E0,3.181218167E0,3.136826754E-1,-1.743552089E0,-7.262892723E-1
3.191178167E0,-9.291178894E-1,-3.582500153E0,-1.692680054E0,3.191178167E0,5.163236260E-1,-1.521400452E0,-5.941087008E-1
3.201138167E0,-1.124761047E0,-3.735482025E0,-1.999990997E0,3.201138167E0,6.408261657E-1,-1.233084440E0,-3.597443700E-1
3.211099167E0,-9.165440369E-1,-3.858376465E0,-2.139650574E0,3.211099167E0,6.808115244E-1,-8.939506412E-1,-1.117208675E-1
3.221059167E0,-6.670129395E-1,-4.173770599E0,-1.933379517E0,3.221059167E0,6.809667945E-1,-4.867874086E-1,1.314118952E-1
3.231020167E0,-5.742059326E-1,-4.666246490E0,-1.395098877E0,3.231020167E0,7.337388396E-1,-3.453080356E-2,3.729928434E-1
3.240980167E0,-2.499801636E-1,-5.373226318E0,-9.303153992E-1,3.240980167E0,8.596224785E-1,3.815723956E-1,5.691688061E-1
3.250941167E0,3.719764709E-1,-6.343209229E0,-8.159532166E-1,3.250941167E0,9.561064839E-1,7.119630575E-1,6.766477823E-1
3.260901167E0,1.029559021E0,-7.661966858E0,-1.508712616E0,3.260901167E0,9.452975392E-1,7.550870776E-1,6.999538541E-1
3.270861167E0,1.703457642E0,-9.306596832E0,-3.387156372E0,3.270861167E0,7.387858033E-1,4.565260112E-1,5.901981592E-1
3.280822167E0,2.546354828E0,-1.112187195E1,-6.393354950E0,3.280822167E0,3.502508104E-1,-9.373127669E-2,2.968964875E-1
3.290782167E0,3.980073395E0,-1.338711136E1,-9.595945129E0,3.290782167E0,-3.436864913E-2,-7.360374928E-1,-1.620279700E-1
3.300743167E0,5.151387634E0,-1.539443710E1,-1.105795486E1,3.300743167E0,-2.467011511E-1,-1.098821044E0,-5.634145737E-1
3.310703167E0,5.623505859E0,-1.558633804E1,-1.162063477E1,3.310703167E0,-3.938752115E-1,-1.091185808E0,-8.209772110E-1
3.320664167E0,5.072651367E0,-1.360640533E1,-1.122366028E1,3.320664167E0,-5.418484211E-1,-9.722846746E-1,-8.889719844E-1
3.330624167E0,4.170627136E0,-9.927655334E0,-1.034049683E1,3.330624167E0,-6.956953406E-1,-9.755737782E-1,-7.552301884E-1
3.340584167E0,4.018842773E0,-6.308631134E0,-8.120463409E0,3.340584167E0,-6.887887120E-1,-7.903658748E-1,-5.524296761E-1
3.350545167E0,3.394191742E0,-4.025429077E0,-5.675597534E0,3.350545167E0,-5.393474698E-1,-4.682915509E-1,-3.457050920E-1
3.360505167E0,2.382445679E0,-3.519032135E0,-4.156855774E0,3.360505167E0,-2.966307402E-1,-2.218903005E-1,-2.281781882E-1
3.370466167E0,1.369352417E0,-5.292693787E0,-2.194286957E0,3.370466167E0,3.820327669E-2,-1.314552873E-1,-1.206968799E-1
3.380426167E0,7.512876892E-1,-8.717571716E0,-1.248553619E0,3.380426167E0,4.404516518E-1,-1.291220784E-1,-6.479579210E-2
3.390387167E0,6.762936401E-1,-1.290705963E1,-1.213825836E0,3.390387167E0,7.087227702E-1,1.417488884E-2,-6.493508071E-2
3.400347167E0,3.890409851E-1,-1.804781937E1,-1.097218323E0,3.400347167E0,1.036348581E0,1.559394747E-1,-1.270196866E-2
3.410307167E0,-5.072950745E-1,-2.450778580E1,8.824150085E-1,3.410307167E0,1.549320340E0,2.224949300E-1,2.774561048E-1
3.420268167E0,-1.163231049E0,-2.703692642E1,-1.769320679E-1,3.420268167E0,1.450849175E0,3.807482123E-1,3.398417234E-1
3.430228167E0,-2.381547546E-1,-2.077125595E1,-5.822591858E0,3.430228167E0,6.298589706E-1,4.469701350E-1,-9.424645454E-2
3.440189167E0,-1.742526398E0,-1.245799347E1,-7.048243103E0,3.440189167E0,-2.387546897E-1,3.774025142E-1,-3.728815317E-1
3.450149167E0,-3.327580261E0,-7.578290863E0,-4.881498871E0,3.450149167E0,-7.810999155E-1,2.790783644E-1,-3.370179534E-1
3.460110167E0,-3.739673309E0,-5.446124725E0,-2.507735138E0,3.460110167E0,-1.008444071E0,2.821330130E-1,-4.024939984E-2
3.470070167E0,-3.502416687E0,-4.485572205E0,-6.471043396E-1,3.470070167E0,-9.321565628E-1,1.970827281E-1,3.707195818E-1
3.480030167E0,-2.596949615E0,-4.210144958E0,8.433462524E-1,3.480030167E0,-6.111066341E-1,-8.046873659E-2,8.198755980E-1
3.489991167E0,-1.900298309E0,-4.861590271E0,1.532662811E0,3.489991167E0,-2.548727691E-1,-4.594624639E-1,1.269573450E0
3.499951167E0,-1.213077393E0,-6.111341400E0,1.598525848E0,3.499951167E0,4.017219320E-2,-8.956280947E-1,1.668598890E0
3.509912167E0,-4.450245667E-1,-7.595804443E0,1.744771729E0,3.509912167E0,3.527868986E-1,-1.283329725E0,1.949548483E0
3.519872167E0,5.731581116E-1,-9.230554962E0,2.056124268E0,3.519872167E0,7.231782079E-1,-1.526273966E0,2.045979261E0
3.529833167E0,1.704954529E0,-1.119312378E1,2.691702576E0,3.529833167E0,1.168770432E0,-1.555951715E0,1.938750625E0
3.539793167E0,2.828218689E0,-1.281335449E1,3.135080566E0,3.539793167E0,1.586871028E0,-1.331322551E0,1.587841868E0
3.549753167E0,3.894152069E0,-1.333651657E1,2.901117096E0,3.549753167E0,1.852369547E0,-7.675677538E-1,1.040272713E0
3.559714167E0,4.241429901E0,-1.292412415E1,2.058818665E0,3.559714167E0,1.948059559E0,1.275377274E-1,4.311673343E-1
3.569674167E0,3.461102600E0,-1.172990753E1,9.147477722E-1,3.569674167E0,1.965512395E0,1.071139574E0,3.177988529E-2
3.579635167E0,8.761280823E-1,-1.072340057E1,-5.694158936E-1,3.579635167E0,1.917236686E0,1.783333898E0,-6.560854381E-4
3.589595167E0,-1.537602539E0,-1.067011139E1,-1.434167633E0,3.589595167E0,1.806082964E0,2.279718637E0,1.840235740E-1
3.599556167E0,-2.845582581E0,-1.113908615E1,-1.678908691E0,3.599556167E0,1.679651499E0,2.625126123E0,4.329795837E-1
3.609516167E0,-3.263513489E0,-1.120899078E1,-2.100731506E0,3.609516167E0,1.548954368E0,2.683917522E0,6.101889014E-1
3.619476167E0,-3.164868622E0,-1.041908340E1,-3.970942383E0,3.619476167E0,1.351378441E0,2.108113289E0,7.010540962E-1
3.629437167E0,-2.500550079E0,-9.118887177E0,-6.499484253E0,3.629437167E0,9.872773290E-1,1.224684596E0,7.450125217E-1
3.639397167E0,-1.137484589E0,-8.080945587E0,-6.811734924E0,3.639397167E0,4.814765155E-1,8.032471538E-1,7.864238620E-1
3.649358167E0,4.695735168E-1,-7.417674866E0,-5.159321136E0,3.649358167E0,4.336490110E-2,8.619157672E-1,7.749719024E-1
3.659318167E0,1.752256165E0,-6.726861420E0,-3.334166565E0,3.659318167E0,-2.059351951E-1,1.073212028E0,6.730775237E-1
3.669279167E0,2.068099365E0,-6.215524750E0,-2.199825439E0,3.669279167E0,-2.955865264E-1,1.084746480E0,5.504316092E-1
3.679239167E0,1.793420563E0,-5.901777191E0,-8.876541138E-1,3.679239167E0,-2.495146245E-1,9.608834386E-1,4.314298034E-1
3.689199167E0,1.130149841E0,-5.864804077E0,9.671388245E-1,3.689199167E0,-1.023510918E-1,9.439693093E-1,3.833112121E-1
3.699160167E0,1.146615601E-1,-6.199058990E0,2.968477020E0,3.699160167E0,1.320350468E-1,1.113976598E0,4.400565326E-1
3.709120167E0,-7.797285461E-1,-6.773564301E0,4.372257843E0,3.709120167E0,4.963694215E-1,1.324882388E0,5.938515067E-1
3.719081167E0,-9.036708069E-1,-7.406148834E0,4.719385986E0,3.719081167E0,9.397367835E-1,1.385726571E0,7.596583366E-1
3.729041167E0,-7.911048889E-1,-7.775730286E0,3.865112457E0,3.729041167E0,1.359787703E0,1.366970778E0,9.284470677E-1
3.739002167E0,-3.233276367E-1,-7.773634644E0,2.244432678E0,3.739002167E0,1.688087821E0,1.204285264E0,1.058665037E0
3.748962167E0,4.318519592E-1,-8.159981232E0,-6.361770630E-2,3.748962167E0,1.872498274E0,9.710481167E-1,1.132183552E0
3.758922167E0,1.019380188E0,-8.607999573E0,-2.421514435E0,3.758922167E0,1.871681690E0,8.323008418E-1,1.167724013E0
3.768883167E0,1.661095734E0,-9.048234100E0,-5.163063354E0,3.768883167E0,1.603429675E0,7.542194724E-1,1.162386298E0
3.778843167E0,2.322121124E0,-9.696685638E0,-7.890990601E0,3.778843167E0,1.013282418E0,6.561778784E-1,1.105326533E0
3.788804167E0,2.858156433E0,-1.010548553E1,-8.766968994E0,3.788804167E0,3.120558560E-1,5.635621548E-1,9.918061495E-1
3.798764167E0,3.221600647E0,-9.618548126E0,-6.711144104E0,3.798764167E0,-1.455697864E-1,4.932437241E-1,7.938978672E-1
3.808725167E0,3.426225128E0,-9.011111298E0,-3.652105408E0,3.808725167E0,-2.658955753E-1,3.931553364E-1,5.623637438E-1
3.818685167E0,3.091521149E0,-9.038204956E0,-1.664987640E0,3.818685167E0,-2.161303908E-1,3.129603863E-1,3.751589656E-1
3.828645167E0,2.179318085E0,-9.495953064E0,-4.031117249E-1,3.828645167E0,-6.661713123E-2,3.880228698E-1,3.012097478E-1
3.838606167E0,1.782193909E0,-1.002001328E1,9.490264893E-2,3.838606167E0,1.220494509E-1,4.341498911E-1,2.859647572E-1
3.848566167E0,1.892664185E0,-1.048569489E1,-4.650828552E-1,3.848566167E0,2.931714058E-1,3.193724155E-1,2.716896236E-1
3.858527167E0,2.360740814E0,-1.074944641E1,-1.548829193E0,3.858527167E0,4.171300828E-1,1.270080060E-1,2.234978378E-1
3.868487167E0,3.170107727E0,-1.075094330E1,-2.398162994E0,3.868487167E0,4.748761952E-1,2.117595449E-2,1.238258705E-1
3.878448167E0,3.853137360E0,-1.065918411E1,-3.184328156E0,3.878448167E0,4.345396757E-1,-8.201641962E-3,-4.119302612E-3
3.888408167E0,4.045637054E0,-1.052685928E1,-3.719615021E0,3.888408167E0,2.948676050E-1,-5.709064659E-3,-1.278095394E-1
3.898368167E0,3.776197357E0,-1.065978287E1,-3.694467316E0,3.898368167E0,1.695613563E-1,-4.287347570E-2,-2.291361690E-1
3.908329167E0,3.286864929E0,-1.106738525E1,-3.296145630E0,3.908329167E0,1.626464427E-1,-6.594128907E-2,-3.317598104E-1
3.918289167E0,2.602188721E0,-1.169607788E1,-3.209775238E0,3.918289167E0,1.620291322E-1,-8.181399107E-2,-4.342267811E-1
3.928250167E0,2.006427612E0,-1.241727814E1,-3.394341431E0,3.928250167E0,4.283677042E-2,-1.238662004E-1,-5.425803661E-1
3.938210167E0,1.835034027E0,-1.294582901E1,-3.031795349E0,3.938210167E0,-2.018273026E-1,-9.828680754E-2,-6.810548902E-1
3.948171167E0,1.486558685E0,-1.300735107E1,-2.418071594E0,3.948171167E0,-4.669627547E-1,-8.081627637E-2,-7.818247676E-1
3.958131167E0,9.500743103E-1,-1.256981094E1,-2.283950500E0,3.958131167E0,-6.851469874E-1,-1.599851251E-1,-8.698070645E-1
3.968091167E0,9.963281250E-1,-1.188169189E1,-2.298021240E0,3.968091167E0,-8.786125183E-1,-3.636227250E-1,-9.763365984E-1
3.978052167E0,1.291514282E0,-1.136272110E1,-1.679208069E0,3.978052167E0,-1.063802123E0,-5.632703304E-1,-1.109555364E0
3.988012167E0,1.268611908E0,-1.084285217E1,-5.218148804E-1,3.988012167E0,-1.153917313E0,-6.293845773E-1,-1.269581437E0
3.997973167E0,4.420307922E-1,-1.052072205E1,3.821553040E-1,3.997973167E0,-1.136271477E0,-6.150426269E-1,-1.402109146E0
4.007933167E0,-7.843688965E-1,-1.021894958E1,6.007008362E-1,4.007933167E0,-1.070459366E0,-5.805801749E-1,-1.490813494E0
4.017894167E0,-2.061812439E0,-1.024499542E1,5.026547241E-1,4.017894167E0,-1.038763762E0,-5.063432455E-1,-1.484497786E0
4.027854167E0,-3.350782013E0,-1.067864365E1,4.884342957E-1,4.027854167E0,-1.046515346E0,-3.318369687E-1,-1.393301606E0
4.037814167E0,-4.536017303E0,-1.163725021E1,6.749464417E-1,4.037814167E0,-1.062727571E0,-1.217926294E-1,-1.201962233E0
4.047775167E0,-5.773194580E0,-1.304417450E1,8.671467590E-1,4.047775167E0,-1.050156116E0,1.383603811E-1,-9.096302986E-1
4.057735167E0,-6.889872437E0,-1.460707443E1,1.195863190E0,4.057735167E0,-9.714666009E-1,3.925510943E-1,-5.453135967E-1
4.067696167E0,-7.156767426E0,-1.581625992E1,9.370513916E-1,4.067696167E0,-8.625246286E-1,5.861124992E-1,-2.261602283E-1
4.077656167E0,-5.695356445E0,-1.529788788E1,-4.408332825E-1,4.077656167E0,-8.316194415E-1,5.185850859E-1,-1.624696702E-1
4.087617167E0,-3.244503021E0,-1.359263397E1,-2.641706543E0,4.087617167E0,-9.372095466E-1,2.815451324E-1,-2.816444039E-1
4.097577167E0,-1.897454224E0,-1.236698273E1,-3.861968994E0,4.097577167E0,-1.168154120E0,3.078212142E-1,-3.878858984E-1
4.107537167E0,-1.184935913E0,-1.194815369E1,-4.098177795E0,4.107537167E0,-1.464023232E0,7.622898221E-1,-3.907650113E-1
4.117498167E0,-6.237528992E-1,-1.170041885E1,-3.272345123E0,4.117498167E0,-1.647119880E0,1.335044384E0,-3.409854770E-1
4.127458167E0,5.550457764E-1,-1.077354630E1,-2.518363037E0,4.127458167E0,-1.698285460E0,1.642038465E0,-3.750484586E-1
4.137419167E0,2.034269714E0,-9.888736267E0,-2.313738556E0,4.137419167E0,-1.651109695E0,1.451668024E0,-5.100129247E-1
4.147379167E0,4.016148376E0,-9.210496674E0,-2.111060028E0,4.147379167E0,-1.442533493E0,6.599025726E-1,-8.200368881E-1
4.157339542E0,6.397097168E0,-9.066645813E0,-1.323397980E0,4.157339542E0,-1.155862331E0,-1.796299368E-1,-1.350911379E0
4.167299542E0,7.311994629E0,-9.455537109E0,-1.199156342E0,4.167299542E0,-9.803019762E-1,-4.610883892E-1,-1.772245765E0
4.177259542E0,5.218597870E0,-9.757010193E0,-1.905088348E0,4.177259542E0,-9.144289494E-1,-5.920900702E-1,-1.771598101E0
4.187220542E0,3.424428864E0,-8.776100006E0,-3.101550293E0,4.187220542E0,-8.636028767E-1,-9.842064381E-1,-1.556532741E0
4.197180542E0,2.542013855E0,-7.451205139E0,-3.363206177E0,4.197180542E0,-7.771571875E-1,-1.484208345E0,-1.286820769E0
4.207141542E0,1.725162506E0,-6.092480621E0,-2.577490082E0,4.207141542E0,-6.444923878E-1,-1.796871185E0,-1.116490245E0
4.217101542E0,8.783734131E-1,-5.234165497E0,-1.496438141E0,4.217101542E0,-5.054426193E-1,-1.908887744E0,-1.051446557E0
4.227061542E0,-5.463638306E-2,-4.915478210E0,-1.390159149E0,4.227061542E0,-4.228760302E-1,-1.898251414E0,-9.986891150E-1
4.237022542E0,-8.416996765E-1,-4.772226105E0,-1.621428223E0,4.237022542E0,-3.557385504E-1,-1.880577683E0,-9.380252361E-1
4.246982542E0,-1.235979767E0,-4.744084625E0,-1.736987915E0,4.246982542E0,-2.701737881E-1,-1.838747621E0,-8.649028540E-1
4.256943542E0,-1.413360901E0,-4.802014160E0,-1.671723633E0,4.256943542E0,-1.438749731E-1,-1.710957646E0,-7.386610508E-1
4.266903542E0,-1.228645020E0,-4.860093384E0,-1.462009735E0,4.266903542E0,3.194810450E-2,-1.583462000E0,-6.106145978E-1
4.276864542E0,-6.384223938E-1,-4.944068756E0,-1.352736969E0,4.276864542E0,2.121775150E-1,-1.398342490E0,-4.602676928E-1
4.286824542E0,-5.062472534E-1,-5.259013824E0,-1.160386963E0,4.286824542E0,3.492698073E-1,-1.155163765E0,-2.683215141E-1
4.296784542E0,-2.713856506E-1,-5.512137451E0,-1.040935364E0,4.296784542E0,4.388643801E-1,-8.671785593E-1,-5.977309495E-2
4.306745542E0,-3.113525391E-2,-5.609734497E0,-9.144483948E-1,4.306745542E0,4.876198173E-1,-5.347898006E-1,1.476694494E-1
4.316705542E0,-1.960922241E-1,-5.679190063E0,-9.304650879E-1,4.316705542E0,5.361955762E-1,-1.742065996E-1,3.967908621E-1
4.326666542E0,-4.385879517E-1,-5.774242401E0,-1.284778290E0,4.326666542E0,6.156549454E-1,1.328808516E-1,6.252641082E-1
4.336626542E0,-9.086105347E-2,-6.052364044E0,-1.957030334E0,4.336626542E0,7.454938889E-1,3.280442059E-1,7.551422119E-1
4.346587542E0,6.809339905E-1,-6.609505463E0,-2.938389587E0,4.346587542E0,8.661862612E-1,3.485447764E-1,7.497727871E-1
4.356547542E0,1.558558960E0,-7.487878876E0,-4.149221649E0,4.356547542E0,8.666304946E-1,1.581250280E-1,6.439150572E-1
4.366507542E0,2.531086578E0,-8.549022217E0,-5.718558197E0,4.366507542E0,6.911439896E-1,-2.144758254E-1,4.758538902E-1
4.376468542E0,3.560495911E0,-1.002615051E1,-7.561825104E0,4.376468542E0,3.592172265E-1,-5.993582606E-1,2.493659109E-1
4.386428542E0,4.852459259E0,-1.214050369E1,-9.274862823E0,4.386428542E0,1.025228128E-1,-9.550226927E-1,-1.015589982E-1
4.396389542E0,6.688840485E0,-1.392494293E1,-9.335636444E0,4.396389542E0,-1.371591166E-2,-9.494652152E-1,-5.065496564E-1
4.406349542E0,6.863527222E0,-1.412851959E1,-9.491013336E0,4.406349542E0,-1.913390905E-1,-7.459681034E-1,-8.724128008E-1
4.416310542E0,5.837111664E0,-1.251068390E1,-9.439819794E0,4.416310542E0,-4.111294746E-1,-5.454144478E-1,-1.036700010E0
4.426270542E0,3.823948059E0,-1.046458878E1,-8.628357239E0,4.426270542E0,-5.832977295E-1,-6.420260072E-1,-9.290537834E-1
4.436230542E0,2.807561646E0,-8.355175323E0,-6.909182281E0,4.436230542E0,-6.640987992E-1,-6.336714029E-1,-7.209964395E-1
4.446191542E0,2.214345245E0,-7.084467773E0,-5.040617981E0,4.446191542E0,-5.824251771E-1,-4.139953852E-1,-5.733894110E-1
4.456151542E0,1.463955688E0,-7.543413391E0,-2.899769897E0,4.456151542E0,-3.286320567E-1,-2.431256324E-1,-4.020549059E-1
4.466112542E0,4.647834778E-1,-9.993368683E0,-1.372795258E0,4.466112542E0,5.102546886E-2,-2.339521945E-1,-2.231549025E-1
4.476072542E0,1.257385254E-2,-1.356778564E1,-4.073030090E-1,4.476072542E0,4.418843091E-1,-1.762617230E-1,-9.290235490E-2
4.486033542E0,-5.008584595E-1,-1.798569855E1,-6.616241455E-2,4.486033542E0,8.248404264E-1,-1.389407963E-1,1.066383421E-1
4.495993542E0,-1.274898834E0,-2.220108261E1,4.899311829E-1,4.495993542E0,1.171044827E0,-7.848837972E-2,3.710263371E-1
4.505953542E0,-1.625619507E0,-2.193388824E1,-8.949888611E-1,4.505953542E0,1.001607776E0,8.737177402E-2,3.834668696E-1
4.515914542E0,-1.663490753E0,-1.616383713E1,-4.227508850E0,4.515914542E0,3.734104335E-1,3.128304482E-1,1.172245145E-1
4.525874542E0,-2.551593933E0,-1.033974838E1,-4.589456177E0,4.525874542E0,-2.503110766E-1,5.657889843E-1,-1.465658098E-1
4.535835542E0,-3.338357849E0,-7.345973969E0,-3.293002167E0,4.535835542E0,-5.979886055E-1,6.408584714E-1,-1.214636564E-1
4.545795542E0,-4.166585541E0,-6.324348450E0,-1.622026978E0,4.545795542E0,-6.687413454E-1,6.685463786E-1,2.211374044E-1
4.555755542E0,-3.798950043E0,-5.755231934E0,-5.300477600E-1,4.555755542E0,-5.788192153E-1,4.829296470E-1,6.174437404E-1
4.565716542E0,-2.624791718E0,-5.567372589E0,9.235794067E-2,4.565716542E0,-3.845840991E-1,4.691652954E-2,9.857872725E-1
4.575676542E0,-1.737436981E0,-6.208639069E0,7.399113464E-1,4.575676542E0,-1.524965465E-1,-4.819483757E-1,1.329954743E0
4.585637542E0,-7.951464844E-1,-7.325316925E0,1.181642761E0,4.585637542E0,9.504867345E-2,-9.931159019E-1,1.617461205E0
4.595597542E0,2.603086853E-1,-8.489745483E0,1.502126312E0,4.595597542E0,4.016330838E-1,-1.456324577E0,1.772639632E0
4.605558542E0,1.866019592E0,-9.747579803E0,1.855541382E0,4.605558542E0,7.738137245E-1,-1.716049194E0,1.702185512E0
4.615518542E0,3.170257416E0,-1.106708588E1,2.200124817E0,4.615518542E0,1.140978217E0,-1.605345011E0,1.455067873E0
4.625478542E0,4.052522736E0,-1.209679459E1,2.390977936E0,4.625478542E0,1.457427740E0,-1.119960904E0,1.067342043E0
4.635439542E0,4.569846954E0,-1.241832596E1,2.110610962E0,4.635439542E0,1.624095798E0,-4.278793335E-1,6.155572534E-1
4.645399542E0,4.039799194E0,-1.192046127E1,1.267713776E0,4.645399542E0,1.674361348E0,3.816516399E-1,2.811309695E-1
4.655360542E0,2.274520111E0,-1.091964249E1,3.344046021E-1,4.655360542E0,1.681663752E0,1.130005002E0,1.953284591E-1
4.665320542E0,1.573228455E-1,-1.037746994E1,-7.463479614E-1,4.665320542E0,1.650128007E0,1.613980770E0,2.153683603E-1
4.675281542E0,-7.902067566E-1,-1.023691223E1,-1.863325195E0,4.675281542E0,1.547218204E0,1.862397790E0,2.247309685E-1
4.685241542E0,-1.507814484E0,-1.026116180E1,-2.481090546E0,4.685241542E0,1.397149086E0,1.988623500E0,2.857028544E-1
4.695201542E0,-2.508184204E0,-1.027972321E1,-2.850971375E0,4.695201542E0,1.214682579E0,1.970919847E0,4.071685672E-1
4.705162542E0,-3.015030212E0,-9.751771088E0,-3.646117859E0,4.705162542E0,1.011363268E0,1.651935697E0,5.370506048E-1
4.715122542E0,-2.616708527E0,-8.826096039E0,-4.778213654E0,4.715122542E0,7.575299740E-1,1.069181919E0,6.127235293E-1
4.725083542E0,-1.388362885E0,-8.036338348E0,-5.069956970E0,4.725083542E0,4.420523643E-1,6.273352504E-1,6.402181387E-1
4.735043542E0,1.016386414E-1,-7.671247559E0,-3.937262421E0,4.735043542E0,1.660889685E-1,4.846982360E-1,6.425654292E-1
4.745004542E0,1.097368011E0,-7.216792603E0,-2.654130707E0,4.745004542E0,-3.698708490E-3,5.054489374E-1,5.964525342E-1
4.754964542E0,1.769170990E0,-6.628366241E0,-1.720671844E0,4.754964542E0,-3.606836498E-2,5.337862968E-1,4.802556038E-1
4.764924542E0,1.836381226E0,-6.270909576E0,-5.945635986E-1,4.764924542E0,4.011575878E-2,6.576175690E-1,3.652663231E-1
4.774885542E0,1.454824677E0,-6.241570587E0,3.456312561E-1,4.774885542E0,1.406929791E-1,7.951093912E-1,3.044157624E-1
4.784845542E0,7.078779602E-1,-6.586902466E0,9.716294861E-1,4.784845542E0,2.553272247E-1,9.302539229E-1,3.268007040E-1
4.794806542E0,4.999603271E-2,-7.036567383E0,1.749412079E0,4.794806542E0,4.359835684E-1,1.046745777E0,4.005582631E-1
4.804766542E0,-2.706372070E-1,-7.645501099E0,2.396067352E0,4.804766542E0,6.952480674E-1,1.189391971E0,5.063971281E-1
4.814726542E0,-2.900967407E-1,-8.203989716E0,2.359393616E0,4.814726542E0,9.817618728E-1,1.282521129E0,6.362533569E-1
4.824687542E0,2.993774414E-3,-8.681796112E0,1.183139648E0,4.824687542E0,1.218370557E0,1.187038302E0,7.518444657E-1
4.834647542E0,4.555027771E-1,-9.050629120E0,-7.924520874E-1,4.834647542E0,1.320363283E0,9.443065524E-1,8.295320868E-1
4.844608542E0,9.009764099E-1,-9.222471771E0,-2.642305298E0,4.844608542E0,1.271795750E0,7.575878501E-1,8.814470768E-1
4.854568542E0,1.472188568E0,-9.228010254E0,-4.441114655E0,4.854568542E0,1.028835297E0,6.203330159E-1,8.890836835E-1
4.864529542E0,2.102677460E0,-9.219627686E0,-6.137536926E0,4.864529542E0,6.180045605E-1,4.301956296E-1,8.496540785E-1
4.874489542E0,2.611170044E0,-8.977131958E0,-6.510710907E0,4.874489542E0,1.851833761E-1,2.313107699E-1,7.529701591E-1
4.884449542E0,2.924318848E0,-8.585396576E0,-5.236261139E0,4.884449542E0,-1.065547988E-1,9.591455013E-2,6.192600131E-1
4.894410542E0,3.211721191E0,-8.491841125E0,-3.423979797E0,4.894410542E0,-2.142495811E-1,4.728309810E-2,4.706721306E-1
4.904370542E0,3.190615082E0,-8.696914673E0,-1.754501495E0,4.904370542E0,-1.875047386E-1,9.185677022E-2,3.416338265E-1
4.914331542E0,2.964884491E0,-9.114246826E0,-5.011578369E-1,4.914331542E0,-5.200870708E-2,1.357720345E-1,2.242091894E-1
4.924291542E0,2.776127014E0,-9.526639252E0,1.666035461E-1,4.924291542E0,1.311906278E-1,1.674591899E-1,1.168125868E-1
4.934252542E0,2.586321716E0,-9.756561127E0,-6.750961304E-2,4.934252542E0,3.103973866E-1,1.002434045E-1,1.495333202E-2
4.944212542E0,2.440674591E0,-9.777068481E0,-9.068142700E-1,4.944212542E0,4.459028244E-1,-2.813183330E-2,-7.857059687E-2
4.954172542E0,2.348316650E0,-9.873318329E0,-1.822609863E0,4.954172542E0,5.096660256E-1,-1.292547137E-1,-1.512469202E-1
4.964133542E0,2.310894470E0,-1.017179764E1,-2.696791992E0,4.964133542E0,4.831356704E-1,-1.543163657E-1,-2.147081345E-1
4.974093542E0,2.076182556E0,-1.069750443E1,-3.490291901E0,4.974093542E0,3.830575347E-1,-1.147282049E-1,-2.462335676E-1
4.984054542E0,1.679806824E0,-1.125943588E1,-3.896996155E0,4.984054542E0,2.625289857E-1,-3.677298874E-2,-2.529626489E-1
4.994014542E0,1.289418640E0,-1.181208664E1,-3.916755066E0,4.994014542E0,1.651795357E-1,2.233853005E-2,-2.727217078E-1
5.003975542E0,1.128952332E0,-1.214993408E1,-3.775897980E0,5.003975542E0,4.684314504E-2,4.865187034E-2,-3.312932253E-1
5.013935542E0,1.232686615E0,-1.225127335E1,-3.445085907E0,5.013935542E0,-1.527466625E-1,4.876239225E-2,-4.151846468E-1
5.023895542E0,1.613943787E0,-1.231489105E1,-2.898871765E0,5.023895542E0,-3.735694289E-1,1.448425651E-2,-5.225364566E-1
5.033856542E0,1.978136444E0,-1.216999237E1,-2.330803070E0,5.033856542E0,-5.435478687E-1,-4.996743798E-2,-6.614295840E-1
5.043816542E0,2.260299683E0,-1.190848618E1,-2.154170380E0,5.043816542E0,-6.665830612E-1,-2.030090839E-1,-7.770341039E-1
5.053777542E0,2.685864716E0,-1.163320862E1,-1.949695587E0,5.053777542E0,-7.861233354E-1,-4.607775211E-1,-9.087429047E-1
5.063737542E0,3.011287994E0,-1.136182297E1,-1.412462769E0,5.063737542E0,-8.723550439E-1,-7.161493897E-1,-1.061489224E0
5.073697542E0,2.579436035E0,-1.110405899E1,-7.460485840E-1,5.073697542E0,-8.993986249E-1,-8.497492671E-1,-1.201839447E0
5.083658542E0,1.649869080E0,-1.072100555E1,-2.707868958E-1,5.083658542E0,-8.981397748E-1,-8.668949604E-1,-1.346879363E0
5.093618542E0,1.562750244E-1,-1.020038818E1,-3.128494263E-1,5.093618542E0,-9.218480587E-1,-8.139481544E-1,-1.446983814E0
5.103579542E0,-1.541344757E0,-9.877509613E0,-5.480104065E-1,5.103579542E0,-1.000972509E0,-6.849513054E-1,-1.416227341E0
5.113539542E0,-3.162623291E0,-1.009066635E1,-5.751040649E-1,5.113539542E0,-1.099561930E0,-5.064902306E-1,-1.261389256E0
5.123500542E0,-4.407734070E0,-1.086605392E1,-2.710862732E-1,5.123500542E0,-1.191472054E0,-2.504483461E-1,-1.046201706E0
5.133460542E0,-5.472469940E0,-1.239482483E1,1.851649475E-1,5.133460542E0,-1.227059364E0,1.077769175E-1,-7.384400368E-1
5.143420542E0,-6.417305145E0,-1.428135178E1,7.753875732E-1,5.143420542E0,-1.142271519E0,4.891176522E-1,-3.399716318E-1
5.153382042E0,-6.545887756E0,-1.534533920E1,1.096020813E0,5.153382042E0,-9.768491983E-1,8.044606447E-1,-5.631994456E-3
5.163342042E0,-4.789290619E0,-1.454136108E1,-1.639091492E-1,5.163342042E0,-8.748979568E-1,7.084617615E-1,4.761122540E-2
5.173303042E0,-2.226619720E0,-1.289747955E1,-2.551743622E0,5.173303042E0,-9.258801341E-1,2.800574005E-1,-1.035665721E-1
5.183263042E0,-6.688092041E-1,-1.199425781E1,-3.909420319E0,5.183263042E0,-1.143093705E0,1.005701125E-1,-2.552329302E-1
5.193224042E0,2.814147949E-2,-1.191342590E1,-4.050726471E0,5.193224042E0,-1.420618534E0,4.040519893E-1,-2.971718609E-1
5.203184042E0,4.567002869E-1,-1.187360870E1,-3.319048004E0,5.203184042E0,-1.612556577E0,9.080654383E-1,-2.997374535E-1
5.213144042E0,1.109343109E0,-1.119611755E1,-2.904260559E0,5.213144042E0,-1.679352641E0,1.259636879E0,-3.135097027E-1
5.223105042E0,1.778302002E0,-1.038854691E1,-3.124452667E0,5.223105042E0,-1.659133554E0,1.225832939E0,-3.773056269E-1
5.233065042E0,3.026556244E0,-9.580527191E0,-3.523822174E0,5.233065042E0,-1.557089448E0,7.709070444E-1,-5.305497646E-1
5.243026042E0,4.248465271E0,-8.945098572E0,-3.288062439E0,5.243026042E0,-1.401256442E0,2.338862568E-1,-7.432736158E-1
5.252986042E0,4.965474243E0,-8.741072845E0,-2.461930389E0,5.252986042E0,-1.148416758E0,-2.030162364E-1,-9.758371115E-1
5.262946042E0,5.055586853E0,-8.564440155E0,-2.333347778E0,5.262946042E0,-9.584673643E-1,-6.730157733E-1,-1.110356212E0
5.272907042E0,4.277055817E0,-8.162376251E0,-2.621498566E0,5.272907042E0,-8.466724157E-1,-9.397457242E-1,-1.117761135E0
5.282867042E0,3.234922943E0,-7.697892151E0,-2.557282104E0,5.282867042E0,-7.442108989E-1,-1.091280937E0,-1.050938964E0
5.292828042E0,2.029479675E0,-7.162006531E0,-2.521057434E0,5.292828042E0,-6.195163727E-1,-1.235826492E0,-9.794880152E-1
5.302788042E0,9.428892517E-1,-6.623576202E0,-2.266436920E0,5.302788042E0,-4.763157070E-1,-1.399205446E0,-9.506665468E-1
5.312749042E0,2.519261169E-1,-6.125711517E0,-1.887874146E0,5.312749042E0,-3.328954279E-1,-1.533006191E0,-9.357770681E-1
5.322709042E0,-2.592608643E-1,-5.809119873E0,-1.704655151E0,5.322709042E0,-2.048040777E-1,-1.617327213E0,-8.919516802E-1
5.332669042E0,-6.846762085E-1,-5.482648773E0,-1.559008026E0,5.332669042E0,-6.850481778E-2,-1.586490750E0,-8.005288243E-1
5.342630042E0,-8.244854736E-1,-5.161267090E0,-1.479223938E0,5.342630042E0,8.268010616E-2,-1.500901699E0,-7.075548768E-1
5.352590042E0,-6.896159363E-1,-5.057233429E0,-1.503623199E0,5.352590042E0,2.424756140E-1,-1.368553996E0,-6.020441651E-1
5.362551042E0,-7.185058594E-1,-5.109474792E0,-1.457369385E0,5.362551042E0,3.793430328E-1,-1.179694057E0,-4.412590265E-1
5.372511042E0,-5.530998230E-1,-5.229375458E0,-1.464853821E0,5.372511042E0,4.602831602E-1,-9.502304792E-1,-2.501785457E-1
5.382472042E0,-2.420466614E-1,-5.437143402E0,-1.196911011E0,5.382472042E0,4.972269833E-1,-6.068505049E-1,-3.369674832E-2
5.392432042E0,1.227447510E-2,-5.640270996E0,-9.581575012E-1,5.392432042E0,5.164222717E-1,-2.174849063E-1,1.778423935E-1
5.402392042E0,7.155120850E-2,-5.814508667E0,-9.604028320E-1,5.402392042E0,5.818188787E-1,1.258196980E-1,3.764652610E-1
5.412353042E0,1.535806274E-1,-5.976621552E0,-1.361418915E0,5.412353042E0,7.008688450E-1,3.437322974E-1,5.318444967E-1
5.422313042E0,4.363426208E-1,-6.306685181E0,-2.269281006E0,5.422313042E0,7.934800982E-1,4.009865522E-1,5.889703035E-1
5.432274042E0,1.008602600E0,-6.948550415E0,-3.870052185E0,5.432274042E0,7.397369742E-1,2.516090572E-1,5.412642956E-1
5.442234042E0,1.967508545E0,-7.933951263E0,-5.612279205E0,5.442234042E0,5.411484241E-1,-1.033367962E-1,3.917595148E-1
5.452195042E0,3.016826477E0,-9.296118622E0,-7.156318359E0,5.452195042E0,2.887633145E-1,-5.496900678E-1,1.933657527E-1
5.462155042E0,4.046235809E0,-1.088281906E1,-8.567882996E0,5.462155042E0,7.108730078E-2,-9.233037829E-1,-6.510710716E-2
5.472115042E0,5.229525146E0,-1.232027985E1,-9.057514801E0,5.472115042E0,-1.598608680E-2,-9.798264503E-1,-3.518760204E-1
5.482076042E0,5.971681824E0,-1.261471756E1,-8.832832031E0,5.482076042E0,-7.573721558E-2,-7.731178999E-1,-6.596119404E-1
5.492036042E0,6.007906494E0,-1.171568710E1,-8.815617828E0,5.492036042E0,-2.232134938E-1,-4.593940675E-1,-8.742030263E-1
5.501997042E0,4.752766571E0,-1.030262558E1,-8.508905640E0,5.501997042E0,-3.917713761E-1,-3.996359706E-1,-8.951769471E-1
5.511957042E0,3.536396027E0,-8.375682678E0,-7.055278473E0,5.511957042E0,-4.615203738E-1,-3.971792161E-1,-7.840645313E-1
5.521917042E0,2.343825989E0,-6.648723907E0,-5.358706512E0,5.521917042E0,-4.658552110E-1,-4.228751957E-1,-5.591701269E-1
5.531878042E0,1.243763580E0,-5.485492859E0,-4.648134155E0,5.531878042E0,-3.734730780E-1,-4.342338443E-1,-3.220228255E-1
5.541838042E0,5.941145325E-1,-5.498066711E0,-3.250939636E0,5.541838042E0,-1.329395920E-1,-4.722513855E-1,-1.099887714E-1
5.551799042E0,8.023315430E-2,-6.905739441E0,-2.081271973E0,5.551799042E0,1.582294106E-1,-5.300550461E-1,9.671274573E-2
5.561759042E0,-1.939965820E-1,-9.579778748E0,-1.890418854E0,5.561759042E0,4.179851711E-1,-5.323323011E-1,2.701342404E-1
5.571720042E0,-1.989363098E-1,-1.332768494E1,-2.167492676E0,5.571720042E0,6.314349174E-1,-4.957418144E-1,4.313580096E-1
5.581680042E0,-8.044271851E-1,-1.818613174E1,-1.522633667E0,5.581680042E0,1.008071184E0,-4.929030240E-1,6.902000904E-1
5.591640042E0,-1.097966766E0,-2.284249878E1,-2.341131592E-1,5.591640042E0,1.338945508E0,-2.786080539E-1,8.733195662E-1
5.601601042E0,-3.035687256E-1,-2.319726105E1,-1.769620056E0,5.601601042E0,1.115862846E0,2.554810047E-1,6.603787541E-1
5.611561042E0,-1.854643250E-1,-1.843985413E1,-4.534221039E0,5.611561042E0,4.729864299E-1,8.052208424E-1,1.776965111E-1
5.621522042E0,-1.129700775E0,-1.217762650E1,-4.807852020E0,5.621522042E0,-9.905670583E-2,8.573887348E-1,-2.135782391E-1
5.631482042E0,-2.251617737E0,-8.291258240E0,-3.412603455E0,5.631482042E0,-5.250295997E-1,6.025763750E-1,-2.281369418E-1
5.641442042E0,-2.923420715E0,-6.710545349E0,-1.906435547E0,5.641442042E0,-8.366433382E-1,4.104769230E-1,3.680307791E-2
5.651403042E0,-2.259850616E0,-6.082301788E0,-2.038760376E-1,5.651403042E0,-9.077830315E-1,8.206253499E-2,4.006790221E-1
5.661363042E0,-1.127455444E0,-6.136788483E0,1.629511414E0,5.661363042E0,-6.734086275E-1,-4.344695807E-1,7.821725607E-1
5.671324042E0,-2.070195007E-1,-6.675069122E0,2.568957825E0,5.671324042E0,-2.676478028E-1,-1.044925451E0,1.151996613E0
5.681284042E0,6.306385803E-1,-7.481142883E0,2.353406067E0,5.681284042E0,1.866646111E-1,-1.652298093E0,1.447871685E0
5.691245042E0,1.300046539E0,-8.433013458E0,1.839973755E0,5.691245042E0,6.290556192E-1,-2.100279570E0,1.632124305E0
5.701205042E0,2.367327118E0,-9.580976257E0,1.605112152E0,5.701205042E0,1.042135954E0,-2.213309526E0,1.636396170E0
5.711165042E0,3.506308594E0,-1.084883972E1,1.728455658E0,5.711165042E0,1.408862591E0,-1.982780218E0,1.439211726E0
5.721126042E0,4.610113220E0,-1.158560760E1,1.932481384E0,5.721126042E0,1.693232417E0,-1.372439504E0,1.028078079E0
5.731086042E0,5.385500793E0,-1.143502075E1,1.775757294E0,5.731086042E0,1.844171882E0,-4.818083942E-1,4.811406434E-1
5.741047042E0,4.641996918E0,-1.061442719E1,1.038240967E0,5.741047042E0,1.913731337E0,4.264420569E-1,7.540594786E-2
5.751007042E0,1.585652618E0,-1.024155258E1,-3.053649902E-1,5.751007042E0,1.863825560E0,1.108514905E0,-2.943764254E-2
5.760968042E0,-1.195414124E0,-1.038480469E1,-1.812431030E0,5.760968042E0,1.719067454E0,1.488244414E0,4.723665863E-2
5.770928042E0,-2.318378906E0,-1.041369461E1,-2.527344360E0,5.770928042E0,1.525366426E0,1.728996396E0,1.544478089E-1
5.780888042E0,-2.929408264E0,-1.036160294E1,-2.114802246E0,5.780888042E0,1.367147326E0,1.975876451E0,2.473805249E-1
5.790849042E0,-3.506158905E0,-9.958042145E0,-1.552870789E0,5.790849042E0,1.261413097E0,2.156330347E0,3.453579545E-1
5.800809042E0,-3.845802612E0,-9.060059509E0,-2.732567596E0,5.800809042E0,1.111394644E0,1.778964162E0,4.712114632E-1
5.810770042E0,-3.023113403E0,-7.899223480E0,-5.136718140E0,5.810770042E0,8.026210070E-1,1.004033804E0,5.617211461E-1
5.820730042E0,-1.416354675E0,-7.181166687E0,-5.202730865E0,5.820730042E0,4.363412559E-1,5.686052442E-1,6.087280512E-1
5.830690042E0,1.407073975E-1,-6.810836792E0,-3.663332062E0,5.830690042E0,1.728827059E-1,5.687969923E-1,6.335191727E-1
5.840651042E0,1.131347351E0,-6.418802032E0,-2.685715027E0,5.840651042E0,3.597619012E-2,6.566406488E-1,6.002869010E-1
5.850611042E0,1.860780487E0,-6.095773773E0,-1.938019867E0,5.850611042E0,1.156991906E-2,7.189889550E-1,4.916197658E-1
5.860572042E0,2.122436371E0,-6.099665680E0,-8.993298340E-1,5.860572042E0,4.954384640E-2,6.686689854E-1,3.699298203E-1
5.870532042E0,1.601369934E0,-6.427483978E0,-1.119671631E-1,5.870532042E0,1.073701307E-1,6.289761662E-1,3.305903971E-1
5.880493042E0,6.709048462E-1,-7.017706604E0,1.288969574E0,5.880493042E0,2.580643296E-1,7.581628561E-1,3.867239356E-1
5.890453042E0,1.631607056E-1,-7.657027130E0,2.368824005E0,5.890453042E0,5.192378759E-1,9.480071068E-1,4.951364398E-1
5.900413042E0,-4.924758911E-2,-8.415350189E0,2.473306732E0,5.900413042E0,8.585698009E-1,1.066398978E0,6.442214847E-1
5.910374042E0,-2.423460388E-1,-9.145831146E0,2.176623688E0,5.910374042E0,1.208089352E0,1.102754593E0,8.190348148E-1
5.920334042E0,-1.332229614E-1,-9.618847504E0,9.120533752E-1,5.920334042E0,1.450722218E0,9.485789537E-1,9.618688822E-1
5.930295042E0,4.875361633E-1,-9.799821167E0,-1.299597473E0,5.930295042E0,1.511110187E0,6.479642987E-1,1.026898980E0
5.940255042E0,1.140478363E0,-9.806257782E0,-3.534150696E0,5.940255042E0,1.357769370E0,3.953377008E-1,1.034558415E0
5.950215042E0,1.925595703E0,-9.595645752E0,-5.533542938E0,5.950215042E0,1.009911537E0,2.446105182E-1,9.677904844E-1
5.960176042E0,2.703228607E0,-9.252858582E0,-6.585255890E0,5.960176042E0,5.277340412E-1,2.000850886E-1,8.377047181E-1
5.970136042E0,3.113525391E0,-8.800648956E0,-6.269562378E0,5.970136042E0,4.436740279E-2,1.982602924E-1,6.630710959E-1
5.980097042E0,3.462150421E0,-8.548573151E0,-5.067861328E0,5.980097042E0,-3.234946430E-1,1.768046767E-1,4.763565361E-1
5.990057042E0,3.430266724E0,-8.775201874E0,-3.275039520E0,5.990057042E0,-4.798916876E-1,1.689424962E-1,3.356156647E-1
6.000018042E0,3.128194885E0,-9.220076752E0,-1.241967316E0,6.000018042E0,-3.993385434E-1,1.061846763E-1,2.538369596E-1
6.009978042E0,2.839445343E0,-9.630523224E0,3.959266663E-1,6.009978042E0,-1.078675613E-1,-5.329845846E-2,1.914595962E-1
6.019938042E0,2.775528259E0,-9.970017242E0,9.993218994E-1,6.019938042E0,2.782899141E-1,-2.971674800E-1,1.267686784E-1
6.029899042E0,3.114423523E0,-1.003288651E1,5.095404053E-1,6.029899042E0,6.221697927E-1,-4.960198700E-1,6.168751977E-3
6.039859042E0,3.399131470E0,-1.010997620E1,-5.408253479E-1,6.039859042E0,8.106632829E-1,-4.923232496E-1,-1.332480907E-1
6.049820042E0,3.238665161E0,-1.053808594E1,-2.194286957E0,6.049820042E0,7.997110486E-1,-3.429998159E-1,-2.198721915E-1
6.059780042E0,2.793041840E0,-1.140328674E1,-3.973038025E0,6.059780042E0,6.109499335E-1,-1.867018789E-1,-2.616311610E-1
6.069740042E0,2.154918823E0,-1.230830475E1,-4.861590271E0,6.069740042E0,3.516317904E-1,-6.752035767E-2,-2.623760402E-1
6.079701042E0,1.666484528E0,-1.301603302E1,-4.767436066E0,6.079701042E0,1.000868082E-1,-7.842087746E-2,-2.629785836E-1
6.089661042E0,1.840572510E0,-1.341345657E1,-4.109853516E0,6.089661042E0,-9.400596470E-2,-1.855787486E-1,-3.270297348E-1
6.099622042E0,2.358046417E0,-1.331765579E1,-3.050656128E0,6.099622042E0,-2.514933944E-1,-2.817150056E-1,-4.765726328E-1
6.109582042E0,2.609972534E0,-1.290556274E1,-2.228116608E0,6.109582042E0,-4.310650527E-1,-3.446721435E-1,-6.624101400E-1
6.119543042E0,2.451901245E0,-1.234378098E1,-1.949096832E0,6.119543042E0,-6.463510394E-1,-4.241675138E-1,-8.334782720E-1
6.129503042E0,2.347717896E0,-1.178918427E1,-1.734143829E0,6.129503042E0,-8.696525693E-1,-5.472074151E-1,-9.861522317E-1
6.139463042E0,2.393822021E0,-1.135359009E1,-1.378782806E0,6.139463042E0,-1.033036947E0,-6.778191924E-1,-1.131770253E0
6.149424042E0,2.213596802E0,-1.086201233E1,-8.565188599E-1,6.149424042E0,-1.113657832E0,-7.892146707E-1,-1.271274090E0
6.159383917E0,1.660047913E0,-1.020847137E1,-5.523513794E-1,6.159383917E0,-1.147672176E0,-9.011296034E-1,-1.418429613E0
6.169344917E0,6.734495544E-1,-9.661808167E0,-5.834866333E-1,6.169344917E0,-1.198954821E0,-9.898456335E-1,-1.550184965E0
6.179304917E0,-6.483018494E-1,-9.182654572E0,-7.637118530E-1,6.179304917E0,-1.295492172E0,-9.822828770E-1,-1.583417058E0
6.189265917E0,-1.908830566E0,-9.093739471E0,-7.514373779E-1,6.189265917E0,-1.409796953E0,-7.915248871E-1,-1.550334215E0
6.199225917E0,-2.966381378E0,-9.677375793E0,-4.399351501E-1,6.199225917E0,-1.483983278E0,-4.531667829E-1,-1.454434276E0
6.209185917E0,-4.221670990E0,-1.128099106E1,1.023870850E-1,6.209185917E0,-1.469584584E0,-5.034714192E-2,-1.215490699E0
6.219146917E0,-5.785918121E0,-1.363858841E1,7.632627869E-1,6.219146917E0,-1.329185724E0,3.502043188E-1,-7.837607265E-1
6.229106917E0,-7.230863342E0,-1.619796616E1,1.021176453E0,6.229106917E0,-1.087986112E0,7.304193377E-1,-2.087937891E-1
6.239067917E0,-7.204817505E0,-1.728171249E1,1.164428558E0,6.239067917E0,-8.585830331E-1,1.057604194E0,2.177922428E-1
6.249027917E0,-4.509522400E0,-1.569426361E1,-7.219487000E-1,6.249027917E0,-8.136422038E-1,9.360677004E-1,1.825386584E-1
6.258987917E0,-1.383273468E0,-1.328996338E1,-3.401227112E0,6.258987917E0,-1.011514425E0,5.813769698E-1,-1.724037975E-1
6.268948917E0,-4.757107544E-1,-1.224768082E1,-4.443809052E0,6.268948917E0,-1.340404153E0,4.665968418E-1,-3.911657333E-1
6.278908917E0,-6.873706055E-1,-1.223675354E1,-3.485501862E0,6.278908917E0,-1.593734384E0,5.635453463E-1,-3.831799328E-1
6.288869917E0,2.107617188E-1,-1.136721176E1,-2.691852264E0,6.288869917E0,-1.742152691E0,4.986888170E-1,-4.010926187E-1
6.298829917E0,2.014660492E0,-1.035965698E1,-2.591560822E0,6.298829917E0,-1.794188976E0,2.526635230E-1,-5.602843165E-1
6.308790917E0,3.205883331E0,-9.747879181E0,-2.609972534E0,6.308790917E0,-1.786555767E0,1.219808683E-1,-7.901529670E-1
6.318750917E0,3.745062103E0,-9.326355743E0,-2.180365906E0,6.318750917E0,-1.602430820E0,1.151979319E-3,-9.805023074E-1
6.328710917E0,4.507576447E0,-8.880133667E0,-2.298619995E0,6.328710917E0,-1.276058078E0,-3.702535331E-1,-1.242496490E0
6.338671917E0,5.374124451E0,-8.406368866E0,-2.899021454E0,6.338671917E0,-1.037669778E0,-6.474387646E-1,-1.455852032E0
6.348631917E0,4.476590881E0,-8.098758545E0,-2.767894135E0,6.348631917E0,-8.496345878E-1,-8.438056111E-1,-1.496033192E0
6.358592917E0,3.728746033E0,-7.513325958E0,-2.776725769E0,6.358592917E0,-7.267093658E-1,-1.202646852E0,-1.432693601E0
6.368552917E0,2.847977600E0,-6.902296600E0,-2.505489807E0,6.368552917E0,-5.784879327E-1,-1.552330613E0,-1.286590695E0
6.378512917E0,1.644629974E0,-6.386319580E0,-1.476230164E0,6.378512917E0,-4.035796523E-1,-1.702305317E0,-1.161034465E0
6.388473917E0,5.716612244E-1,-5.816604309E0,-1.245110779E0,6.388473917E0,-2.487908751E-1,-1.815908551E0,-1.058828712E0
6.398433917E0,-1.902543640E-1,-5.417534180E0,-1.231040039E0,6.398433917E0,-1.049399972E-1,-1.904847622E0,-9.890202880E-1
6.408394917E0,-7.255412292E-1,-5.118755493E0,-9.827064514E-1,6.408394917E0,6.513718516E-2,-1.907199740E0,-9.069491029E-1
6.418354917E0,-1.116677856E0,-4.883444824E0,-1.053958282E0,6.418354917E0,2.447955012E-1,-1.870265484E0,-8.194251060E-1
6.428314917E0,-1.177152100E0,-4.631069641E0,-1.157393188E0,6.428314917E0,4.418593049E-1,-1.775561571E0,-7.058106661E-1
6.438275917E0,-1.179696808E0,-4.663103027E0,-1.243015137E0,6.438275917E0,6.376528740E-1,-1.569113970E0,-5.201371312E-1
6.448235917E0,-8.131091309E-1,-4.703518982E0,-1.574276276E0,6.448235917E0,7.628741860E-1,-1.294266701E0,-3.252424896E-1
6.458196917E0,-4.317022705E-1,-4.778662720E0,-1.754651184E0,6.458196917E0,8.114691377E-1,-8.776057959E-1,-1.108018085E-1
6.468156917E0,-1.414558411E-1,-4.932842102E0,-1.782942352E0,6.468156917E0,8.023893833E-1,-4.174009562E-1,1.108040884E-1
6.478117917E0,2.553689575E-1,-5.118456116E0,-1.821562042E0,6.478117917E0,8.033312559E-1,-1.911862567E-2,3.085143566E-1
6.488077917E0,5.248086548E-1,-5.451663208E0,-2.114353180E0,6.488077917E0,8.009573221E-1,2.672161758E-1,4.893041253E-1
6.498037917E0,6.691085815E-1,-5.997577972E0,-2.485581207E0,6.498037917E0,7.584525943E-1,4.921365976E-1,6.219941378E-1
6.507998917E0,1.097517700E0,-6.890022125E0,-3.397933960E0,6.507998917E0,6.314547062E-1,4.811164439E-1,6.418623924E-1
6.517958917E0,2.020947418E0,-8.210426331E0,-4.508324890E0,6.517958917E0,4.233202636E-1,1.563058496E-1,5.074922442E-1
6.527919917E0,3.237168274E0,-9.969418488E0,-6.097570038E0,6.527919917E0,1.478822827E-1,-4.213764071E-1,2.174449712E-1
6.537879917E0,4.795727234E0,-1.261127472E1,-8.016130371E0,6.537879917E0,-3.396635503E-2,-9.492328167E-1,-2.067630887E-1
6.547840917E0,6.491850128E0,-1.504192017E1,-8.425229645E0,6.547840917E0,4.410860594E-3,-1.113589525E0,-6.828334332E-1
6.557800917E0,7.078480225E0,-1.497560806E1,-8.557255096E0,6.557800917E0,9.593456052E-3,-8.966189623E-1,-1.120150924E0
6.567760917E0,5.259612579E0,-1.326496536E1,-9.162296906E0,6.567760917E0,-1.310685873E-1,-6.671210527E-1,-1.241222739E0
6.577721917E0,2.905009003E0,-1.065199905E1,-9.497749329E0,6.577721917E0,-3.924706280E-1,-6.196656227E-1,-1.095471978E0
6.587681917E0,2.042652283E0,-7.944878540E0,-8.288414154E0,6.587681917E0,-6.244247556E-1,-5.954843760E-1,-8.560789227E-1
6.597642917E0,1.408271484E0,-6.240971832E0,-6.773264923E0,6.597642917E0,-7.730426788E-1,-4.880532324E-1,-5.884594321E-1
6.607602917E0,1.254541168E0,-6.118227081E0,-4.444108429E0,6.607602917E0,-6.198405623E-1,-3.700725436E-1,-3.548685312E-1
6.617562917E0,1.080602875E0,-8.309071198E0,-2.549498291E0,6.617562917E0,-3.743266165E-1,-4.418987930E-1,-1.741908193E-1
6.627523917E0,1.622176666E0,-1.192585007E1,-1.700613556E0,6.627523917E0,-9.435754269E-2,-4.909307957E-1,-1.147011220E-1
6.637483917E0,1.871408386E0,-1.674837158E1,-4.758604431E-1,6.637483917E0,2.804034352E-1,-4.613834620E-1,-3.827253124E-3
6.647444917E0,1.450783081E0,-2.081646194E1,5.891748047E-1,6.647444917E0,6.696907282E-1,-3.323152065E-1,1.712385714E-1
6.657404917E0,1.220412140E0,-2.064297272E1,-2.023791504E-1,6.657404917E0,6.965533495E-1,-1.322819293E-1,1.985281259E-1
6.667365917E0,7.978408813E-2,-1.620859406E1,-2.460134125E0,6.667365917E0,4.543189406E-1,1.168487892E-1,1.185480654E-1
6.677325917E0,-1.701811066E0,-1.129356491E1,-2.677781525E0,6.677325917E0,2.322774827E-1,3.781136572E-1,5.840912089E-2
6.687285917E0,-2.600542145E0,-7.978857880E0,-2.314037933E0,6.687285917E0,6.975968927E-2,5.801640153E-1,8.352991939E-2
6.697246917E0,-3.215164032E0,-6.068680115E0,-1.878892822E0,6.697246917E0,-6.207559630E-2,6.129699945E-1,2.966348827E-1
6.707206917E0,-3.556604004E0,-5.642516327E0,-1.230441284E0,6.707206917E0,-1.223597080E-1,3.937535286E-1,6.535354853E-1
6.717167917E0,-3.117866364E0,-6.043083344E0,-3.676354980E-1,6.717167917E0,-5.265345797E-2,-5.999122933E-2,1.062446713E0
6.727127917E0,-2.540217590E0,-7.060517578E0,6.539900208E-1,6.727127917E0,1.250299811E-1,-6.282749176E-1,1.492769837E0
6.737087917E0,-1.777553558E0,-8.232729950E0,1.576072540E0,6.737087917E0,3.684956431E-1,-1.175370574E0,1.872197390E0
6.747048917E0,-5.403762817E-1,-9.201964417E0,2.113155670E0,6.747048917E0,6.682268977E-1,-1.702833295E0,2.102331400E0
6.757008917E0,9.746232605E-1,-1.030038025E1,2.405198364E0,6.757008917E0,1.037271380E0,-2.117728949E0,2.126869917E0
6.766969917E0,2.887944489E0,-1.141915375E1,2.872676239E0,6.766969917E0,1.447669625E0,-2.279622793E0,1.902701139E0
6.776929917E0,4.491410065E0,-1.232192642E1,2.860252075E0,6.776929917E0,1.781423569E0,-1.910458326E0,1.467059374E0
6.786890917E0,5.649851074E0,-1.269060974E1,2.446811829E0,6.786890917E0,1.975733995E0,-9.258706570E-1,8.742834330E-1
6.796850917E0,5.826783142E0,-1.184741318E1,1.413959656E0,6.796850917E0,2.042787790E0,1.820838600E-1,3.219099641E-1
6.806810917E0,4.089046783E0,-1.012210098E1,-1.881587219E-1,6.806810917E0,2.054266930E0,1.011059046E0,5.626417324E-2
6.816771917E0,1.353335724E0,-9.140741730E0,-2.051334229E0,6.816771917E0,1.979079843E0,1.384600997E0,-7.987366989E-4
6.826731917E0,-2.408491516E-1,-8.973240051E0,-3.781586151E0,6.826731917E0,1.764374733E0,1.444152236E0,1.431843080E-2
6.836692917E0,-1.039438477E0,-9.184450836E0,-4.659809875E0,6.836692917E0,1.448421836E0,1.348364949E0,1.047266796E-1
6.846652917E0,-1.786983948E0,-9.589209137E0,-4.617148590E0,6.846652917E0,1.121767282E0,1.174743652E0,2.649035752E-1
6.856612917E0,-1.943258972E0,-9.328152008E0,-4.240831146E0,6.856612917E0,8.645081520E-1,8.458638787E-1,4.096122086E-1
6.866573917E0,-1.070274353E0,-8.413254547E0,-4.282294922E0,6.866573917E0,6.240673065E-1,3.524600863E-1,4.711533189E-1
6.876533917E0,1.965412903E-1,-7.489525452E0,-3.973936157E0,6.876533917E0,3.877426386E-1,1.013041846E-2,4.675890803E-1
6.886494917E0,1.009949799E0,-6.748865662E0,-2.856360168E0,6.886494917E0,2.028958201E-1,-9.776674956E-2,4.242975414E-1
6.896454917E0,1.453178101E0,-5.946234741E0,-1.742975464E0,6.896454917E0,1.075535119E-1,-9.005569667E-2,3.358182907E-1
6.906415917E0,1.363664246E0,-5.467380524E0,-6.942562866E-1,6.906415917E0,1.092858985E-1,-3.461587057E-2,2.430281490E-1
6.916375917E0,9.451345825E-1,-5.429060211E0,9.131011963E-2,6.916375917E0,1.754694581E-1,6.537254900E-2,1.714251339E-1
6.926335917E0,2.366578674E-1,-5.901777191E0,8.252339172E-1,6.926335917E0,2.995458543E-1,2.435950190E-1,1.457924694E-1
6.936296917E0,-6.186634827E-1,-6.735693054E0,1.804946594E0,6.936296917E0,5.135384202E-1,4.718304574E-1,1.829371452E-1
6.946256917E0,-1.621727600E0,-7.760312347E0,2.629132690E0,6.946256917E0,7.937117815E-1,8.068933487E-1,2.947297096E-1
6.956217917E0,-2.480042725E0,-8.681646423E0,2.769840088E0,6.956217917E0,1.106122851E0,1.144676447E0,4.880284965E-1
6.966177917E0,-2.774181061E0,-9.319320374E0,2.154619446E0,6.966177917E0,1.387636542E0,1.272885323E0,6.951404214E-1
6.976137917E0,-2.477498016E0,-9.657018127E0,6.908134460E-1,6.976137917E0,1.533692122E0,1.176095128E0,8.576903343E-1
6.986098917E0,-1.757495270E0,-9.771529999E0,-1.278191986E0,6.986098917E0,1.489735246E0,9.509261847E-1,9.529047608E-1
6.996058917E0,-8.454418945E-1,-9.689650269E0,-3.496429138E0,6.996058917E0,1.260938406E0,6.533538103E-1,9.944012165E-1
7.006019917E0,1.222956848E-1,-9.799521790E0,-5.346731415E0,7.006019917E0,9.279040098E-1,4.967127740E-1,1.039230466E0
7.015979917E0,1.446292419E0,-9.844578094E0,-5.908213806E0,7.015979917E0,5.376014113E-1,5.987783074E-1,1.009087086E0
7.025939917E0,2.790048065E0,-9.610614624E0,-5.746699677E0,7.025939917E0,1.252910942E-1,6.626121402E-1,9.135183096E-1
7.035900917E0,3.958967285E0,-8.989107056E0,-4.973856812E0,7.035900917E0,-2.153594941E-1,5.656292439E-1,7.257511020E-1
7.045860917E0,4.546196136E0,-8.325387268E0,-3.219205627E0,7.045860917E0,-3.746716380E-1,4.543905556E-1,4.748192728E-1
7.055821917E0,4.429438934E0,-8.275091858E0,-1.338965607E0,7.055821917E0,-3.460402191E-1,3.053307235E-1,2.487094402E-1
7.065781917E0,4.026476898E0,-8.815468140E0,4.670288086E-2,7.065781917E0,-1.528837979E-1,1.009272486E-1,1.232207566E-1
7.075742917E0,3.909270630E0,-9.423354034E0,8.755293274E-1,7.075742917E0,1.295635700E-1,-2.666350827E-2,5.739551038E-2
7.085702917E0,4.133204956E0,-1.002734802E1,6.776408386E-1,7.085702917E0,4.150168598E-1,-1.294756383E-1,6.995720789E-3
7.095662917E0,4.451742554E0,-1.066442322E1,-1.347198486E-1,7.095662917E0,6.723335385E-1,-1.642101705E-1,-8.206696808E-2
7.105623917E0,4.364474030E0,-1.120060822E1,-9.833052063E-1,7.105623917E0,8.010371327E-1,-5.108334497E-2,-1.831136942E-1
7.115583917E0,3.875141602E0,-1.163440613E1,-2.576591949E0,7.115583917E0,7.279402018E-1,2.032717317E-2,-2.480220795E-1
7.125544917E0,3.187022552E0,-1.188528442E1,-3.921545105E0,7.125544917E0,5.332596302E-1,4.003775865E-2,-2.942319214E-1
7.135504917E0,2.752476196E0,-1.223540634E1,-4.456682281E0,7.135504917E0,3.025433123E-1,1.991753653E-2,-3.526876867E-1
7.145464917E0,2.558928680E0,-1.274240204E1,-4.788392487E0,7.145464917E0,6.680695713E-2,-4.064913839E-2,-4.383168519E-1
7.155425750E0,2.423310699E0,-1.308848236E1,-4.527035980E0,7.155425750E0,-1.956431419E-1,-8.477164805E-2,-5.616831779E-1
7.165385750E0,2.395917664E0,-1.326960571E1,-3.589236145E0,7.165385750E0,-4.881269336E-1,-1.325136125E-1,-7.157800794E-1
7.175346750E0,2.656675415E0,-1.303130127E1,-2.301164703E0,7.175346750E0,-7.432387471E-1,-2.174417526E-1,-9.061410427E-1
7.185306750E0,2.915187836E0,-1.241802658E1,-1.304387512E0,7.185306750E0,-9.380564094E-1,-3.434958458E-1,-1.123513460E0
7.195267750E0,3.072211304E0,-1.166164948E1,-4.351451111E-1,7.195267750E0,-1.086034179E0,-4.998145998E-1,-1.375515103E0
7.205227750E0,2.893932037E0,-1.079300583E1,1.059796143E-1,7.205227750E0,-1.125097156E0,-7.219826579E-1,-1.604690790E0
7.215187750E0,2.321821747E0,-9.910141754E0,2.432441711E-1,7.215187750E0,-1.093510747E0,-9.280304909E-1,-1.817612290E0
7.225148750E0,1.249601440E0,-9.409582672E0,1.601669312E-2,7.225148750E0,-1.071698070E0,-1.062706351E0,-1.974146008E0
7.235108750E0,-1.203497314E-1,-9.107959900E0,-1.772314453E-1,7.235108750E0,-1.091452241E0,-1.025425196E0,-2.068592787E0
7.245069750E0,-1.816322937E0,-9.305099945E0,-2.186952209E-1,7.245069750E0,-1.176571369E0,-7.765370607E-1,-2.037724495E0
7.255029750E0,-3.728147278E0,-1.052865555E1,-3.420387268E-1,7.255029750E0,-1.320596457E0,-4.190916717E-1,-1.818524837E0
7.264989750E0,-5.960904236E0,-1.286170395E1,-5.897735596E-1,7.264989750E0,-1.477952838E0,-8.626126498E-2,-1.342199922E0
7.274950750E0,-8.498876495E0,-1.631996246E1,-6.662644958E-1,7.274950750E0,-1.490278482E0,2.522339523E-1,-5.716143250E-1
7.284910750E0,-9.756411438E0,-1.872052048E1,1.728904724E0,7.284910750E0,-1.233826399E0,9.676620960E-1,2.356254607E-1
7.294871750E0,-8.269403687E0,-1.832504288E1,2.151026917E0,7.294871750E0,-1.049270272E0,1.559880018E0,6.514782906E-1
7.304831750E0,-4.237537994E0,-1.552511536E1,-1.001267853E0,7.304831750E0,-1.101212263E0,1.485481501E0,4.673545361E-1
7.314791750E0,-1.659598846E0,-1.310779221E1,-3.532055054E0,7.314791750E0,-1.285193563E0,1.125521421E0,7.596882433E-2
7.324752750E0,-1.281634827E0,-1.241278748E1,-3.983965302E0,7.324752750E0,-1.498466492E0,1.131236911E0,-2.024300396E-1
7.334712750E0,-1.414109344E0,-1.241218872E1,-3.454366608E0,7.334712750E0,-1.708977699E0,1.412097335E0,-2.354610860E-1
7.344673750E0,-1.030307465E0,-1.153291718E1,-3.045267334E0,7.344673750E0,-1.847046614E0,1.526992321E0,-2.118550986E-1
7.354633750E0,3.165916443E-1,-1.009051666E1,-2.649490356E0,7.354633750E0,-1.860907674E0,1.292302370E0,-2.910204232E-1
7.364594750E0,2.373614044E0,-9.017398224E0,-2.546953583E0,7.364594750E0,-1.778232813E0,8.873478770E-1,-5.577202439E-1
7.374554750E0,4.875211945E0,-8.318800964E0,-2.222129059E0,7.374554750E0,-1.561047435E0,4.414064288E-1,-9.706914425E-1
7.384514750E0,6.450086975E0,-8.112230530E0,-1.908231812E0,7.384514750E0,-1.227827668E0,-1.853932813E-2,-1.448246360E0
7.394475750E0,7.506589966E0,-8.098309479E0,-2.333946533E0,7.394475750E0,-9.996469021E-1,-2.739629149E-1,-1.846247673E0
7.404435750E0,6.797963562E0,-8.335566101E0,-3.043620758E0,7.404435750E0,-9.017432928E-1,-4.925205410E-1,-1.939429283E0
7.414396750E0,5.207071838E0,-8.094866638E0,-3.597319336E0,7.414396750E0,-8.547520041E-1,-8.517959714E-1,-1.775685906E0
7.424356750E0,4.426145782E0,-7.128625946E0,-3.379821625E0,7.424356750E0,-7.311714292E-1,-1.406707644E0,-1.503151536E0
7.434316750E0,3.409160614E0,-6.182742920E0,-2.444117432E0,7.434316750E0,-5.298804045E-1,-1.905594468E0,-1.154221058E0
7.444277750E0,2.106719055E0,-5.180427246E0,-1.271905060E0,7.444277750E0,-3.226528764E-1,-2.140300751E0,-9.806103706E-1
7.454237750E0,1.288819885E0,-4.502786407E0,-1.125210114E0,7.454237750E0,-1.763513684E-1,-2.275755882E0,-8.938024044E-1
7.464198750E0,1.531315613E-1,-4.124073944E0,-1.123563538E0,7.464198750E0,-4.303939268E-2,-2.366429329E0,-7.814268470E-1
7.474158750E0,-5.224136353E-1,-3.656446381E0,-9.801617432E-1,7.474158750E0,1.233342066E-1,-2.418134212E0,-6.523562074E-1
7.484119750E0,-7.337741089E-1,-3.195704498E0,-8.991801453E-1,7.484119750E0,3.162093759E-1,-2.272417784E0,-5.122318864E-1
7.494079750E0,-7.514373779E-1,-2.974015503E0,-9.527687073E-1,7.494079750E0,5.461547971E-1,-2.007660151E0,-3.698716760E-1
7.504039750E0,-8.173004150E-1,-3.048859863E0,-8.831634521E-1,7.504039750E0,7.948831320E-1,-1.498180270E0,-1.713599116E-1
7.514000750E0,-5.313949585E-1,-3.287313995E0,-9.391470337E-1,7.514000750E0,9.896639585E-1,-8.703885078E-1,2.763954364E-2
7.523960750E0,-2.698887634E-1,-3.544778595E0,-1.144070892E0,7.523960750E0,1.101923227E0,-1.762718260E-1,2.478107959E-1
7.533921750E0,-1.317260742E-2,-3.806434479E0,-1.377136230E0,7.533921750E0,1.162946343E0,4.428136945E-1,4.544917643E-1
7.543881750E0,2.426454163E-1,-4.170926514E0,-1.659598846E0,7.543881750E0,1.214538693E0,9.059773684E-1,6.154678464E-1
7.553841750E0,3.273692322E-1,-4.958289185E0,-1.968556366E0,7.553841750E0,1.172185779E0,1.180120587E0,7.191194892E-1
7.563802750E0,5.029541016E-1,-6.378984833E0,-2.816692657E0,7.563802750E0,9.615771174E-1,1.019703746E0,7.442560196E-1
7.573762750E0,1.015338593E0,-8.616980896E0,-4.489464111E0,7.573762750E0,6.185235977E-1,3.565520346E-1,6.419090629E-1
7.583723750E0,2.227068787E0,-1.200758011E1,-7.498656464E0,7.583723750E0,1.597376317E-1,-6.357042193E-1,2.852337062E-1
7.593683750E0,4.724625092E0,-1.657667862E1,-9.593849487E0,7.593683750E0,-6.092547625E-2,-1.449358702E0,-3.199394643E-1
7.603643750E0,6.788982239E0,-1.888442963E1,-9.106762390E0,7.603643750E0,-1.294286400E-1,-1.520570517E0,-9.161663651E-1
7.613604750E0,7.347770233E0,-1.697799408E1,-1.023855881E1,7.613604750E0,-3.275780082E-1,-1.148346782E0,-1.297059417E0
7.623564750E0,5.268893280E0,-1.354578140E1,-1.081905167E1,7.623564750E0,-5.525858402E-1,-8.564842343E-1,-1.196107149E0
7.633525750E0,4.255201263E0,-9.264534302E0,-9.628427582E0,7.633525750E0,-7.226061821E-1,-5.968359113E-1,-9.042851329E-1
7.643485750E0,4.200265503E0,-5.272785187E0,-6.886579285E0,7.643485750E0,-8.087823391E-1,-3.285786211E-1,-5.243399739E-1
7.653446750E0,3.044369202E0,-2.410886536E0,-4.361629944E0,7.653446750E0,-6.705077887E-1,-5.176406354E-2,-2.410978675E-1
7.663406750E0,1.740580444E0,-1.111139374E0,-1.414857788E0,7.663406750E0,-2.859630287E-1,1.663967669E-1,-3.609012067E-2
7.673366750E0,3.059637451E-1,-2.157912598E0,-1.094224548E-1,7.673366750E0,1.342972368E-1,1.388498843E-1,1.931361705E-1
7.683327750E0,-1.039887543E0,-5.449268188E0,-1.510359192E-1,7.683327750E0,5.858830214E-1,3.288989514E-2,5.198860765E-1
7.693287750E0,-1.900747375E0,-1.047312103E1,1.437011719E-2,7.693287750E0,1.003929615E0,-4.478142411E-2,8.844587803E-1
7.703248750E0,-2.094594269E0,-1.815709213E1,-9.608518982E-1,7.703248750E0,1.613035560E0,-5.642603040E-1,1.307267189E0
7.713208750E0,-2.140848083E0,-2.922612396E1,2.476599884E0,7.713208750E0,2.429704189E0,-7.560670972E-1,1.801038742E0
7.723168750E0,-1.587149506E0,-3.480442383E1,3.578458557E0,7.723168750E0,2.147386312E0,-2.698231637E-1,1.547001123E0
7.733129750E0,1.819915466E0,-2.705653564E1,-4.440815277E0,7.733129750E0,8.464407921E-1,3.414264023E-1,3.377408981E-1
7.743089750E0,1.939367065E0,-1.471979004E1,-6.219266968E0,7.743089750E0,-3.219095170E-1,4.618955553E-1,-7.355332375E-1
7.753050750E0,-9.319619751E-1,-7.579638062E0,-4.238286438E0,7.753050750E0,-1.055557609E0,9.807573259E-2,-9.492980838E-1
7.763010750E0,-2.984793091E0,-4.661306763E0,-1.596130829E0,7.763010750E0,-1.353664160E0,1.124765128E-1,-6.222898960E-1
7.772970750E0,-3.431164856E0,-3.470233612E0,2.113005981E0,7.772970750E0,-1.184976101E0,2.358375639E-1,-6.665935367E-2
7.782931750E0,-3.573818207E0,-3.253783722E0,3.202440491E0,7.782931750E0,-6.953251362E-1,1.998254955E-1,6.068226695E-1
7.792891750E0,-3.388503571E0,-3.542832642E0,2.489473114E0,7.792891750E0,-6.765981019E-2,5.566795543E-2,1.247279644E0
7.802852750E0,-2.584375763E0,-4.678371277E0,1.488354950E0,7.802852750E0,4.093703926E-1,-1.287775189E-1,1.776873231E0
7.812812750E0,-1.629361725E0,-6.492149506E0,8.288264465E-1,7.812812750E0,7.083827853E-1,-2.902660370E-1,2.133027077E0
7.822773750E0,-4.079017639E-1,-8.783434753E0,6.180647278E-1,7.822773750E0,9.676705599E-1,-4.833098054E-1,2.228788853E0
7.832733750E0,8.256829834E-1,-1.175909683E1,1.194066925E0,7.832733750E0,1.220233321E0,-7.703335881E-1,2.029859781E0
7.842693750E0,2.213596802E0,-1.370190674E1,1.503323822E0,7.842693750E0,1.428259015E0,-1.046093583E0,1.533310175E0
7.852654750E0,3.826193390E0,-1.410920975E1,1.633702698E0,7.852654750E0,1.667480350E0,-9.404518008E-1,7.577319145E-1
7.862614750E0,4.194427643E0,-1.312934738E1,1.325044556E0,7.862614750E0,1.884092212E0,-4.143787026E-1,1.097104996E-1
7.872575750E0,2.404150543E0,-1.200593353E1,4.860392761E-1,7.872575750E0,1.995476246E0,3.620035946E-1,-1.255570054E-1
7.882535750E0,-2.420466614E-1,-1.164114212E1,-4.586462402E-1,7.882535750E0,1.950379610E0,1.182432532E0,5.350401625E-3
7.892495750E0,-2.237397308E0,-1.116932327E1,-7.749385071E-1,7.892495750E0,1.807471752E0,2.050450802E0,2.959958315E-1
7.902456750E0,-3.260220337E0,-1.028825546E1,-5.099894714E-1,7.902456750E0,1.600516915E0,2.827551842E0,5.972906947E-1
7.912416750E0,-3.163671112E0,-8.601562958E0,-1.808239746E0,7.912416750E0,1.317313910E0,2.875988483E0,7.609618306E-1
7.922377750E0,-2.060165863E0,-6.763535156E0,-4.906047821E0,7.922377750E0,9.568140507E-1,1.990648746E0,7.636971474E-1
7.932337750E0,-7.779322815E-1,-5.432802429E0,-5.902375946E0,7.932337750E0,5.580149889E-1,1.086714029E0,6.627573967E-1
7.942297750E0,3.210823059E-1,-4.802463226E0,-3.888613586E0,7.942297750E0,2.618799508E-1,9.207703471E-1,5.694277287E-1
7.952258750E0,1.074166260E0,-4.767585754E0,-1.863474884E0,7.952258750E0,1.062191501E-1,1.129038453E0,5.053415895E-1
7.962218750E0,1.604663086E0,-4.780458984E0,-1.479822693E0,7.962218750E0,1.339333970E-2,1.274229765E0,4.430353045E-1
7.972179750E0,1.841171265E0,-5.019212494E0,-1.248852997E0,7.972179750E0,-3.144596517E-2,1.334634542E0,3.672183156E-1
7.982139750E0,1.609004059E0,-5.635630646E0,-3.781137085E-1,7.982139750E0,-1.813388988E-2,1.384485960E0,3.242426217E-1
7.992100750E0,9.291178894E-1,-6.816524963E0,6.385720825E-1,7.992100750E0,1.261187196E-1,1.386751294E0,3.623240590E-1
8.002060750E0,-7.439529419E-2,-8.210725708E0,1.733096008E0,8.002060750E0,4.339236617E-1,1.379903197E0,4.997599125E-1
8.012020750E0,-8.268804932E-1,-9.538464661E0,2.638413391E0,8.012020750E0,8.441638350E-1,1.336213470E0,7.025229335E-1
8.021981750E0,-7.870632935E-1,-1.019155655E1,2.596051483E0,8.021981750E0,1.231181026E0,1.219547629E0,9.048622251E-1
8.031941750E0,-3.736230469E-1,-1.021011795E1,1.638343048E0,8.031941750E0,1.516401529E0,1.040543556E0,1.085963726E0
8.041902750E0,5.839356995E-1,-9.994715881E0,-5.158273315E-1,8.041902750E0,1.636164665E0,7.959316969E-1,1.163035035E0
8.051862750E0,1.876946869E0,-9.532327423E0,-3.597319336E0,8.051862750E0,1.497268319E0,5.338424444E-1,1.137866735E0
8.061822750E0,3.136278076E0,-9.203461304E0,-6.693780212E0,8.061822750E0,1.047686219E0,3.109766245E-1,1.048431158E0
8.071783750E0,4.348307648E0,-8.855584717E0,-8.233628082E0,8.071783750E0,3.883584142E-1,1.357313097E-1,9.198960662E-1
8.081743750E0,5.240602112E0,-8.362809448E0,-7.274123383E0,8.081743750E0,-1.839288026E-1,1.792942286E-1,7.430016994E-1
8.091704750E0,5.322332153E0,-7.891739044E0,-4.674030304E0,8.091704750E0,-4.824622571E-1,3.405516744E-1,5.148686171E-1
8.101664750E0,4.992717590E0,-8.142916718E0,-2.940934296E0,8.101664750E0,-5.647504330E-1,3.953246474E-1,2.690771818E-1
8.111624750E0,4.314777374E0,-9.149423676E0,-1.580114136E0,8.111624750E0,-4.607290924E-1,3.703672886E-1,7.970351726E-2
8.121585750E0,3.466042328E0,-1.025487488E1,-1.963916016E-1,8.121585750E0,-1.758179665E-1,3.086006045E-1,-2.760018688E-4
8.131545750E0,2.842289429E0,-1.118938156E1,3.195854187E-1,8.131545750E0,1.865938753E-1,1.299724132E-1,-3.605091944E-2
8.141506750E0,2.862497406E0,-1.162856827E1,-3.183879089E-1,8.141506750E0,4.743899703E-1,-1.051253229E-1,-1.072244346E-1
8.151466750E0,3.231929169E0,-1.149549500E1,-1.369651794E0,8.151466750E0,6.078688502E-1,-2.691368461E-1,-2.222161293E-1
8.161427875E0,3.691174164E0,-1.127081223E1,-2.647544403E0,8.161427875E0,5.580272675E-1,-3.125967085E-1,-3.419460058E-1
8.171387875E0,3.780837708E0,-1.148546585E1,-3.949237518E0,8.171387875E0,3.942210376E-1,-2.848342061E-1,-4.774423838E-1
8.181347875E0,3.442541199E0,-1.217418365E1,-4.618944855E0,8.181347875E0,2.107377648E-1,-2.475310266E-1,-6.373085380E-1
8.191308875E0,2.780917053E0,-1.310599594E1,-4.514761505E0,8.191308875E0,-1.435414795E-2,-2.574972808E-1,-8.047726154E-1
8.201268875E0,2.152523804E0,-1.362107483E1,-3.723955994E0,8.201268875E0,-3.258869946E-1,-3.126188517E-1,-9.731001258E-1
8.211229875E0,1.682650909E0,-1.306183777E1,-2.746488647E0,8.211229875E0,-6.520285606E-1,-4.012292027E-1,-1.129765391E0
8.221189875E0,1.481469269E0,-1.202150116E1,-1.921853485E0,8.221189875E0,-9.531902671E-1,-5.339747071E-1,-1.278518915E0
8.231149875E0,1.496288452E0,-1.141720779E1,-1.288071442E0,8.231149875E0,-1.154639721E0,-7.246186733E-1,-1.392841935E0
8.241110875E0,1.302291870E0,-1.120300323E1,-6.899153137E-1,8.241110875E0,-1.204076529E0,-8.911660910E-1,-1.495639920E0
8.251070875E0,7.743397522E-1,-1.099763031E1,4.221221924E-2,8.251070875E0,-1.168623805E0,-9.623289108E-1,-1.625297785E0
8.261031875E0,-3.071612549E-1,-1.098370926E1,3.402424622E-1,8.261031875E0,-1.176957846E0,-9.290612340E-1,-1.706626177E0
8.270991875E0,-1.752705231E0,-1.123234222E1,2.668949890E-1,8.270991875E0,-1.264445782E0,-7.109156847E-1,-1.671329975E0
8.280951875E0,-3.328777771E0,-1.195414124E1,4.950205994E-1,8.280951875E0,-1.371061683E0,-3.021098375E-1,-1.499891400E0
8.290912875E0,-4.946912842E0,-1.358320358E1,8.867559814E-1,8.290912875E0,-1.413142323E0,1.745730489E-1,-1.179769754E0
8.300872875E0,-6.716233521E0,-1.588376953E1,1.301094360E0,8.300872875E0,-1.297472954E0,7.019386292E-1,-6.651843786E-1
8.310833875E0,-8.137228546E0,-1.773017990E1,2.362836456E0,8.310833875E0,-1.025735378E0,1.318407059E0,-4.708218202E-2
8.320793875E0,-7.663314056E0,-1.754905655E1,1.654060364E0,8.320793875E0,-8.152831793E-1,1.604914784E0,3.436299264E-1
8.330754875E0,-5.027445374E0,-1.520627838E1,-1.889520721E0,8.330754875E0,-8.855842352E-1,1.371665120E0,3.254942894E-1
8.340714875E0,-3.251688080E0,-1.337798035E1,-4.798122253E0,8.340714875E0,-1.273694992E0,1.238191009E0,1.452459246E-1
8.350674875E0,-3.212918701E0,-1.287742126E1,-5.100343781E0,8.350674875E0,-1.669677377E0,1.561723948E0,1.262137666E-2
8.360635875E0,-3.203188934E0,-1.266995270E1,-3.832480316E0,8.360635875E0,-1.851741672E0,1.883931041E0,-1.469040476E-2
8.370595875E0,-2.086660767E0,-1.184367096E1,-3.272494812E0,8.370595875E0,-1.891501069E0,1.872231722E0,-3.836373240E-2
8.380556875E0,-5.725593567E-1,-1.046024780E1,-2.584375763E0,8.380556875E0,-1.887640595E0,1.686708450E0,-1.355209053E-1
8.390516875E0,1.933080139E0,-9.085057526E0,-1.891466675E0,8.390516875E0,-1.737509251E0,9.327682257E-1,-5.248218775E-1
8.400476875E0,5.866151276E0,-8.461005249E0,-1.231040039E0,8.400476875E0,-1.511731505E0,3.175247312E-1,-1.228188872E0
8.410437875E0,6.862329712E0,-8.303832092E0,-7.694000244E-1,8.410437875E0,-1.292025328E0,3.544325382E-2,-1.770287156E0
8.420397875E0,6.140530701E0,-7.850574646E0,-1.300794983E0,8.420397875E0,-1.175379395E0,-4.247167613E-3,-2.026273489E0
8.430358875E0,5.658982086E0,-6.920558624E0,-2.760260010E0,8.430358875E0,-1.104777455E0,-2.245322168E-1,-2.088824511E0
8.440318875E0,5.349575500E0,-6.056255951E0,-3.909719696E0,8.440318875E0,-1.052646399E0,-7.079798579E-1,-1.986670375E0
8.450278875E0,4.631219330E0,-5.398972778E0,-3.687132568E0,8.450278875E0,-8.945315480E-1,-1.302903652E0,-1.705981731E0
8.460239875E0,3.492387543E0,-4.733756104E0,-2.477947083E0,8.460239875E0,-6.365069151E-1,-1.912760139E0,-1.285947919E0
8.470199875E0,2.411784668E0,-3.978576508E0,-1.335672455E0,8.470199875E0,-3.875102699E-1,-2.252053976E0,-9.282966852E-1
8.480160875E0,1.444645844E0,-3.383563843E0,-6.337820435E-1,8.480160875E0,-1.737170219E-1,-2.335751057E0,-7.905667424E-1
8.490120875E0,2.290237427E-1,-3.193010101E0,-7.828720093E-1,8.490120875E0,-9.490998462E-3,-2.364453316E0,-6.873329878E-1
8.500080875E0,-6.210585022E-1,-3.032992859E0,-1.005908203E0,8.500080875E0,1.447185427E-1,-2.355865955E0,-6.113098264E-1
8.510041875E0,-7.391629028E-1,-2.861299896E0,-1.152303772E0,8.510041875E0,3.223883510E-1,-2.224831581E0,-5.468623638E-1
8.520001875E0,-7.448510742E-1,-3.153342590E0,-1.190624084E0,8.520001875E0,5.193344951E-1,-1.886206269E0,-3.949939609E-1
8.529962875E0,-6.331832886E-1,-3.719465332E0,-1.189127197E0,8.529962875E0,6.845959425E-1,-1.306433558E0,-1.590304673E-1
8.539922875E0,-3.770658875E-1,-4.075125732E0,-1.473835144E0,8.539922875E0,7.792734504E-1,-5.761009455E-1,9.951853007E-2
8.549882875E0,-1.939965820E-1,-4.281995544E0,-1.948498077E0,8.549882875E0,8.238183260E-1,7.686345279E-2,3.792386949E-1
8.559843875E0,1.451980591E-1,-4.407584381E0,-2.109114075E0,8.559843875E0,8.482599854E-1,6.285340786E-1,6.355199814E-1
8.569803875E0,6.499484253E-1,-4.726870422E0,-2.250120850E0,8.569803875E0,8.554016948E-1,9.580225348E-1,7.918058634E-1
8.579764875E0,1.306483154E0,-5.449118500E0,-2.708318024E0,8.579764875E0,7.783260942E-1,1.065127373E0,8.104754686E-1
8.589724875E0,1.983225861E0,-6.630162506E0,-3.513643341E0,8.589724875E0,5.909768939E-1,7.519737482E-1,7.112955451E-1
8.599685875E0,2.239942017E0,-8.664731598E0,-4.718787231E0,8.599685875E0,3.271623254E-1,1.351411641E-1,5.149177313E-1
8.609645875E0,2.982697449E0,-1.182151703E1,-6.784940643E0,8.609645875E0,5.547656864E-2,-6.361767054E-1,1.255141646E-1
8.619605875E0,4.199367371E0,-1.547796341E1,-8.403973846E0,8.619605875E0,-2.494316921E-2,-1.276248455E0,-3.625892103E-1
8.629566875E0,5.894741821E0,-1.678100372E1,-8.861422577E0,8.629566875E0,-1.261597127E-2,-1.384797454E0,-7.984138131E-1
8.639526875E0,6.016738129E0,-1.494222748E1,-9.516460419E0,8.639526875E0,-6.105354428E-2,-1.116681099E0,-9.620764852E-1
8.649487875E0,3.838916931E0,-1.194396240E1,-9.732311554E0,8.649487875E0,-1.756341308E-1,-8.201279640E-1,-7.436243892E-1
8.659447875E0,2.669997711E0,-8.772058411E0,-9.216933289E0,8.659447875E0,-3.281370997E-1,-5.670999289E-1,-4.174095392E-1
8.669407875E0,2.057172089E0,-6.349645844E0,-7.887847137E0,8.669407875E0,-4.466854632E-1,-3.201942146E-1,-2.011078149E-1
8.679368875E0,1.596430206E0,-5.269342346E0,-5.130580902E0,8.679368875E0,-4.036442339E-1,-1.081919447E-1,-2.799168974E-2
8.689328875E0,5.358856201E-1,-6.600524139E0,-2.572849731E0,8.689328875E0,-2.675196528E-1,-8.052777499E-2,2.886410058E-1
8.699289875E0,4.718188477E-1,-8.499026184E0,-1.826801147E0,8.699289875E0,-7.037916780E-2,-1.457613856E-1,5.633112192E-1
8.709249875E0,3.956272888E-1,-9.970615997E0,-5.243595886E-1,8.709249875E0,1.818585247E-1,-4.939597845E-2,7.850679755E-1
8.719209875E0,-1.245410156E-1,-1.087757996E1,-3.617976379E-1,8.719209875E0,4.090463817E-1,8.084884286E-2,9.201549888E-1
8.729170875E0,-6.632707214E-1,-1.139206009E1,-5.152285767E-1,8.729170875E0,6.013550162E-1,2.853647172E-1,9.308937192E-1
8.739130875E0,-1.403481445E0,-1.316542236E1,-1.709744568E0,8.739130875E0,7.955149412E-1,3.810030818E-1,9.235905409E-1
8.749091875E0,-1.957778778E0,-1.843760880E1,-2.436333618E0,8.749091875E0,1.223849893E0,5.362541676E-1,1.051856756E0
8.759051875E0,-2.488874359E0,-2.418520660E1,1.899549866E0,8.759051875E0,1.517273307E0,8.883834481E-1,1.065970182E0
8.769011875E0,-1.225052490E0,-2.202190521E1,8.939410400E-1,8.769011875E0,1.251811147E0,1.301618218E0,5.485141277E-1
8.778972875E0,2.369572449E-1,-1.431383423E1,-1.992057495E0,8.778972875E0,7.096410394E-1,8.771589994E-1,7.215587050E-2
8.788932875E0,-9.720785522E-1,-9.311985626E0,-3.015628967E0,8.788932875E0,1.536616087E-1,2.611663751E-2,9.069282562E-2
8.798893875E0,-1.391356659E0,-7.465126190E0,-1.539249115E0,8.798893875E0,-2.597358525E-1,-5.656566620E-1,3.777613640E-1
8.808853875E0,-1.311871948E0,-7.566016388E0,8.345146179E-1,8.808853875E0,-4.498676062E-1,-8.759528995E-1,7.691976428E-1
8.818814875E0,-5.665718079E-1,-7.995772705E0,2.644999695E0,8.818814875E0,-3.344557881E-1,-1.163609147E0,1.078700781E0
8.828774875E0,4.897814941E-1,-7.585475922E0,3.340154114E0,8.828774875E0,-1.211363077E-2,-1.486212492E0,1.269758463E0
8.838734875E0,1.002315674E0,-7.181016998E0,2.956202545E0,8.838734875E0,3.745563030E-1,-1.626019597E0,1.391688704E0
8.848695875E0,1.387165375E0,-7.658524017E0,2.310595093E0,8.848695875E0,8.318657279E-1,-1.571683764E0,1.421027780E0
8.858655875E0,2.056872711E0,-9.161698151E0,1.838626556E0,8.858655875E0,1.492067695E0,-1.373123050E0,1.306704640E0
8.868616875E0,3.046464844E0,-1.117710709E1,1.680106201E0,8.868616875E0,2.148244858E0,-9.399774075E-1,9.277289510E-1
8.878576875E0,3.721860352E0,-1.220801331E1,1.435963898E0,8.878576875E0,2.589539766E0,-1.809695810E-1,4.352151752E-1
8.888536875E0,2.717449036E0,-1.235186417E1,5.478607178E-1,8.888536875E0,2.647449493E0,8.045281172E-1,4.882859439E-2
8.898497875E0,5.661227417E-1,-1.225950623E1,-5.297483826E-1,8.898497875E0,2.455525637E0,1.669184327E0,-8.402053267E-2
8.908457875E0,-1.521885223E0,-1.238030502E1,-1.666334839E0,8.908457875E0,2.136277199E0,2.167381048E0,3.991138935E-2
8.918418875E0,-2.905757446E0,-1.172272247E1,-2.576591949E0,8.918418875E0,1.768599749E0,2.256301641E0,3.007948995E-1
8.928378875E0,-3.460952911E0,-1.022403900E1,-3.781137085E0,8.928378875E0,1.360196829E0,1.823004961E0,5.492764115E-1
8.938338875E0,-2.902314606E0,-8.008047180E0,-5.551954651E0,8.938338875E0,8.931063414E-1,1.060278296E0,6.831234097E-1
8.948299875E0,-1.472787323E0,-6.055507507E0,-5.526806946E0,8.948299875E0,4.174713790E-1,5.977547169E-1,6.802846193E-1
8.958259875E0,3.695814514E-1,-4.941074982E0,-3.764222260E0,8.958259875E0,3.851873800E-2,5.618105531E-1,5.860667825E-1
8.968220875E0,1.600771179E0,-4.609215088E0,-2.019001465E0,8.968220875E0,-1.448987275E-1,7.113574743E-1,4.909247160E-1
8.978180875E0,1.977388000E0,-4.721631317E0,-4.893324280E-1,8.978180875E0,-1.248842701E-1,8.620303273E-1,4.139612019E-1
8.988140875E0,2.123035126E0,-4.733307037E0,6.884184265E-1,8.988140875E0,2.137779258E-2,9.774548411E-1,3.395119309E-1
8.998101875E0,1.994452515E0,-4.956941986E0,1.564396820E0,8.998101875E0,2.304772139E-1,1.100800157E0,2.986510694E-1
9.008061875E0,1.307830353E0,-5.614374847E0,1.999841309E0,9.008061875E0,5.025781989E-1,1.200506449E0,3.452504575E-1
9.018022875E0,2.981799316E-1,-6.645430756E0,2.012115784E0,9.018022875E0,8.515223265E-1,1.204926610E0,4.903533161E-1
9.027982875E0,-7.559280396E-1,-7.788154449E0,1.657652893E0,9.027982875E0,1.219195604E0,1.095688224E0,6.726345420E-1
9.037943875E0,-1.797761536E0,-8.846603394E0,1.160386963E0,9.037943875E0,1.479749203E0,9.883115292E-1,8.767029643E-1
9.047903875E0,-2.503094788E0,-9.563462677E0,4.625381470E-2,9.047903875E0,1.561638117E0,7.722460032E-1,1.078768253E0
9.057863875E0,-1.992506561E0,-9.949509888E0,-2.066752167E0,9.057863875E0,1.385378599E0,4.958037436E-1,1.190070510E0
9.067824875E0,-1.646575928E-1,-9.808353424E0,-4.205654297E0,9.067824875E0,1.013147712E0,3.183242083E-1,1.170525908E0
9.077784875E0,2.152823181E0,-9.686357117E0,-5.746999054E0,9.077784875E0,5.796484947E-1,4.142901599E-1,1.068355680E0
9.087745875E0,3.874692535E0,-9.793085175E0,-6.024072876E0,9.087745875E0,1.911927164E-1,7.397845387E-1,9.611716866E-1
9.097705875E0,5.159021759E0,-1.027343628E1,-5.477709045E0,9.097705875E0,-9.268560261E-2,9.835101366E-1,7.926921248E-1
9.107665875E0,5.771398315E0,-1.067834427E1,-4.182302856E0,9.107665875E0,-1.950732321E-1,1.182897568E0,5.745657086E-1
9.117626875E0,5.571863251E0,-1.104044128E1,-2.952160950E0,9.117626875E0,-1.597740948E-1,1.287668705E0,3.476873040E-1
9.127586875E0,4.838987274E0,-1.108564728E1,-2.436782684E0,9.127586875E0,-8.126249909E-2,1.205614209E0,1.594540477E-1
9.137547875E0,4.132905579E0,-1.113115265E1,-2.783761139E0,9.137547875E0,-4.628400505E-2,9.867116213E-1,-1.515925978E-3
9.147507875E0,3.737128601E0,-1.125853775E1,-3.217708740E0,9.147507875E0,-8.144269139E-2,7.491117120E-1,-9.662713856E-2
9.157468000E0,3.536096649E0,-1.146106659E1,-3.079995117E0,9.157468000E0,-1.763926446E-1,4.596386254E-1,-1.617060006E-1
9.167429000E0,3.821702728E0,-1.176643158E1,-2.345023499E0,9.167429000E0,-2.043004185E-1,1.645859927E-1,-2.871043384E-1
9.177389000E0,4.188140717E0,-1.216220856E1,-1.554667053E0,9.177389000E0,-1.659471691E-1,-1.159399375E-1,-4.947286546E-1
9.187350000E0,4.041894836E0,-1.243658798E1,-1.431173859E0,9.187350000E0,-2.083905339E-1,-3.854657710E-1,-7.625439763E-1
9.197310000E0,3.612737274E0,-1.229992218E1,-1.124910736E0,9.197310000E0,-3.984819055E-1,-6.502241492E-1,-1.066861272E0
9.207270000E0,2.906805267E0,-1.179936310E1,-7.487429810E-1,9.207270000E0,-6.373712420E-1,-9.259364605E-1,-1.354090214E0
9.217231000E0,2.208208008E0,-1.126991409E1,-9.804611206E-2,9.217231000E0,-8.308165669E-1,-1.142908216E0,-1.614651442E0
9.227191000E0,1.693877563E0,-1.106154739E1,9.385482788E-1,9.227191000E0,-8.856712580E-1,-1.244096398E0,-1.838255882E0
9.237152000E0,5.487588501E-1,-1.099493591E1,9.330097961E-1,9.237152000E0,-9.334374666E-1,-1.234444022E0,-1.989820600E0
9.247112000E0,-9.692344666E-1,-1.139400604E1,2.499801636E-1,9.247112000E0,-1.111265779E0,-1.084051967E0,-2.054033995E0
9.257072000E0,-2.456990662E0,-1.247835114E1,-9.744735718E-2,9.257072000E0,-1.349842191E0,-6.771510243E-1,-2.009349346E0
9.267033000E0,-4.097579041E0,-1.408960052E1,-6.586303711E-2,9.267033000E0,-1.567201138E0,-8.962726593E-2,-1.843087912E0
9.276993000E0,-5.291346588E0,-1.613554596E1,-4.851411438E-1,9.276993000E0,-1.680034757E0,4.567255378E-1,-1.535060287E0
9.286954000E0,-6.488706665E0,-1.868205048E1,7.679031372E-2,9.286954000E0,-1.605893970E0,1.002617598E0,-1.037524581E0
9.296914000E0,-7.398215332E0,-2.022534119E1,7.162605286E-1,9.296914000E0,-1.434016824E0,1.542310476E0,-4.963657558E-1
9.306875000E0,-6.429878998E0,-1.934726715E1,-1.791773987E-1,9.306875000E0,-1.316550612E0,1.714542866E0,-1.669150740E-1
9.316835000E0,-4.706662445E0,-1.695254700E1,-1.809886322E0,9.316835000E0,-1.306484461E0,1.516378045E0,-3.669501469E-2
9.326795000E0,-3.745660858E0,-1.430365540E1,-2.494113464E0,9.326795000E0,-1.390767097E0,1.319174886E0,-2.283454873E-2
9.336756000E0,-3.489992523E0,-1.260708344E1,-2.269131317E0,9.336756000E0,-1.511610866E0,1.330400825E0,-6.039284170E-2
9.346716000E0,-3.059936829E0,-1.149280060E1,-1.929786987E0,9.346716000E0,-1.620837331E0,1.451222062E0,-1.606681496E-1
9.356677000E0,-1.785636749E0,-1.059856018E1,-2.303859100E0,9.356677000E0,-1.733085752E0,1.377237558E0,-2.779814899E-1
9.366637000E0,-6.262976074E-1,-1.019455032E1,-2.991529083E0,9.366637000E0,-1.839483976E0,1.104449034E0,-3.305156529E-1
9.376597000E0,6.875202942E-1,-9.553283844E0,-2.956052856E0,9.376597000E0,-1.831160784E0,4.748798311E-1,-4.419204593E-1
9.386558000E0,3.409909058E0,-9.049730988E0,-2.803969116E0,9.386558000E0,-1.717664838E0,-4.246504605E-1,-7.838159800E-1
9.396518000E0,6.294261017E0,-8.550968170E0,-2.298919373E0,9.396518000E0,-1.520733237E0,-1.101088762E0,-1.396953702E0
9.406479000E0,8.721763000E0,-8.517437897E0,-1.460213470E0,9.406479000E0,-1.270800233E0,-1.260583997E0,-2.084081650E0
9.416439000E0,6.931934967E0,-9.266480255E0,-1.898951111E0,9.416439000E0,-1.118396282E0,-1.319656134E0,-2.283391237E0
9.426399000E0,4.625231781E0,-8.924441528E0,-2.825823669E0,9.426399000E0,-9.821993113E-1,-1.668228507E0,-2.188875198E0
9.436360000E0,4.789889374E0,-7.468569031E0,-3.204386444E0,9.436360000E0,-8.532740474E-1,-2.202491760E0,-2.041126728E0
9.446320000E0,4.748126221E0,-6.353986816E0,-2.534230042E0,9.446320000E0,-6.345897913E-1,-2.714009285E0,-1.818467498E0
9.456281000E0,3.843257904E0,-5.689518585E0,-1.150058441E0,9.456281000E0,-3.797159195E-1,-2.879696131E0,-1.512977362E0
9.466241000E0,2.771636353E0,-5.080135803E0,-1.612147522E-1,9.466241000E0,-1.758199781E-1,-2.743803501E0,-1.266222715E0
9.476201000E0,1.528022461E0,-4.637655945E0,-2.725831604E-1,9.476201000E0,-5.547998473E-2,-2.580965757E0,-1.085978389E0
9.486162000E0,1.317260742E-2,-4.249513092E0,-6.096821594E-1,9.486162000E0,4.045014456E-2,-2.475374699E0,-9.079574943E-1
9.496122000E0,-1.097966766E0,-3.745960236E0,-7.012916565E-1,9.496122000E0,1.340205669E-1,-2.350660801E0,-7.508650422E-1
9.506083000E0,-1.497186584E0,-3.215912476E0,-7.967930603E-1,9.506083000E0,2.282142341E-1,-2.185715199E0,-6.361462474E-1
9.516043000E0,-1.730251923E0,-3.013832703E0,-1.036744080E0,9.516043000E0,3.048882484E-1,-1.942006946E0,-5.149516463E-1
9.526003000E0,-1.671424255E0,-3.069217529E0,-1.013392639E0,9.526003000E0,3.643444777E-1,-1.586743951E0,-3.639952838E-1
9.535964000E0,-1.375190277E0,-3.200494537E0,-9.783654785E-1,9.535964000E0,4.025107920E-1,-1.175949216E0,-2.062549293E-1
9.545924000E0,-1.050814819E0,-3.466940460E0,-8.080197144E-1,9.545924000E0,4.512961209E-1,-7.250245214E-1,-1.932994276E-2
9.555885000E0,-7.923023987E-1,-3.719165955E0,-5.249583435E-1,9.555885000E0,5.640841722E-1,-2.900778353E-1,1.604502201E-1
9.565845000E0,-5.060975647E-1,-3.857478333E0,-2.528242493E-1,9.565845000E0,7.513207793E-1,1.679904163E-1,2.955286503E-1
9.575805000E0,-4.305047607E-1,-4.104165344E0,-6.358776855E-1,9.575805000E0,9.616245031E-1,5.397000909E-1,3.764650524E-1
9.585766000E0,-5.647755432E-1,-4.596491547E0,-1.763632507E0,9.585766000E0,1.118627429E0,7.578436136E-1,4.286438227E-1
9.595726000E0,-5.601351929E-1,-5.672454071E0,-3.444936218E0,9.595726000E0,1.173094153E0,7.265320420E-1,4.299404919E-1
9.605687000E0,-2.414479065E-1,-7.405699768E0,-5.643414459E0,9.605687000E0,1.027849436E0,3.821327686E-1,3.503544629E-1
9.615647000E0,6.515950012E-1,-9.742041321E0,-8.483308868E0,9.615647000E0,5.854927301E-1,-2.803959548E-1,1.931595206E-1
9.625607000E0,2.452649689E0,-1.261726227E1,-1.084928879E1,9.625607000E0,5.345103145E-2,-1.005061150E0,1.447614748E-3
9.635568000E0,4.662204895E0,-1.521061935E1,-1.095916031E1,9.635568000E0,-3.405343592E-1,-1.247518539E0,-2.723032236E-1
9.645528000E0,6.831344147E0,-1.562346085E1,-9.569001160E0,9.645528000E0,-5.071918368E-1,-1.099087000E0,-5.691369772E-1
9.655489000E0,6.602470093E0,-1.356853409E1,-8.512049103E0,9.655489000E0,-5.859732032E-1,-9.032469392E-1,-6.634975672E-1
9.665449000E0,4.939727783E0,-1.047087570E1,-7.803123322E0,9.665449000E0,-6.261978149E-1,-7.449526787E-1,-5.080366135E-1
9.675409000E0,4.019591217E0,-7.396718445E0,-6.049220581E0,9.675409000E0,-5.759000182E-1,-4.700805843E-1,-2.882208526E-1
9.685370000E0,3.649560699E0,-5.180427246E0,-5.006788330E0,9.685370000E0,-4.035572708E-1,-1.628046036E-1,-2.195402235E-1
9.695330000E0,3.152893524E0,-4.539759521E0,-3.660487976E0,9.695330000E0,-2.139396816E-1,2.236754596E-1,-2.408780009E-1
9.705291000E0,1.914818115E0,-6.001469879E0,-7.611671448E-1,9.705291000E0,4.969052970E-2,6.286039948E-1,-1.175407842E-1
9.715251000E0,9.942324829E-1,-9.179660797E0,3.370989990E-1,9.715251000E0,3.834722340E-1,7.275063396E-1,6.384818256E-2
9.725212000E0,5.863307190E-1,-1.419393356E1,-2.531236267E-1,9.725212000E0,7.380450368E-1,5.584235191E-1,2.362468243E-1
9.735172000E0,7.756869507E-1,-2.207998444E1,-7.496411133E-1,9.735172000E0,1.340738416E0,9.341984242E-2,4.973564446E-1
9.745132000E0,-1.930984497E-1,-3.138313843E1,1.370549927E0,9.745132000E0,1.699941158E0,2.666764259E-1,9.636312127E-1
9.755093000E0,-1.486109619E0,-3.206497055E1,-3.454516296E0,9.755093000E0,9.371021986E-1,2.983869612E-1,8.761650324E-1
9.765053000E0,-1.080602875E0,-2.004825943E1,-8.794960785E0,9.765053000E0,-1.704905033E-1,2.293149382E-1,1.764280051E-1
9.775014000E0,-3.676055603E0,-9.067244568E0,-4.323309631E0,9.775014000E0,-8.066171408E-1,5.247651935E-1,-3.848563731E-1
9.784974000E0,-4.887785797E0,-3.849993896E0,-2.295177155E0,9.784974000E0,-1.054090858E0,6.537225246E-1,-5.408084393E-1
9.794934000E0,-5.359305267E0,-1.920655975E0,-1.037342834E0,9.794934000E0,-8.887027502E-1,7.618021369E-1,-2.114249468E-1
9.804895000E0,-5.301974487E0,-1.791624298E0,5.734574890E-1,9.804895000E0,-4.670926332E-1,5.574589372E-1,3.930875361E-1
9.814855000E0,-4.984634399E0,-3.131038971E0,1.206640778E0,9.814855000E0,1.804903336E-2,1.792415977E-1,1.213803649E0
9.824816000E0,-4.030817871E0,-5.078489227E0,1.821112976E0,9.824816000E0,4.133174419E-1,-2.738040686E-1,1.947015643E0
9.834776000E0,-2.319875793E0,-6.504873047E0,1.785337372E0,9.834776000E0,6.759735346E-1,-6.845548749E-1,2.519291401E0
9.844736000E0,-8.119116211E-1,-8.180638275E0,1.796564026E0,9.844736000E0,9.578024149E-1,-1.111666679E0,2.871398926E0
9.854697000E0,1.034349060E0,-1.038884628E1,2.950214996E0,9.854697000E0,1.301943779E0,-1.390668511E0,2.877531052E0
9.864657000E0,3.042123871E0,-1.258897110E1,3.901337128E0,9.864657000E0,1.639040709E0,-1.428515315E0,2.440707684E0
9.874618000E0,4.969366150E0,-1.418779633E1,3.468287659E0,9.874618000E0,1.920090795E0,-1.097207189E0,1.689343214E0
9.884578000E0,5.767955475E0,-1.407373352E1,2.675536194E0,9.884578000E0,2.121994734E0,-1.820971668E-1,8.704512119E-1
9.894538000E0,4.622088318E0,-1.285332138E1,2.009122009E0,9.894538000E0,2.258230925E0,1.051260114E0,2.971785665E-1
9.904499000E0,1.866318970E0,-1.149908752E1,9.610015869E-1,9.904499000E0,2.374884605E0,1.973598957E0,9.803202003E-2
9.914459000E0,-2.872526550E-1,-1.072983719E1,-4.361929321E-1,9.914459000E0,2.345107317E0,2.426115036E0,1.159987673E-1
9.924420000E0,-1.592388611E0,-1.062894699E1,-1.926643524E0,9.924420000E0,2.115700960E0,2.598045349E0,2.632180154E-1
9.934380000E0,-2.458936615E0,-1.041070084E1,-3.278632050E0,9.934380000E0,1.747322559E0,2.603384733E0,4.803098440E-1
9.944340000E0,-2.655178528E0,-9.379046173E0,-4.924609222E0,9.944340000E0,1.334757328E0,2.329478502E0,6.416212916E-1
9.954301000E0,-1.133143616E0,-7.736212463E0,-6.661447449E0,9.954301000E0,9.337702990E-1,1.693711281E0,6.134751439E-1
9.964261000E0,1.155746613E0,-6.405629425E0,-6.106551361E0,9.964261000E0,6.012352705E-1,1.303755403E0,4.960251153E-1
9.974222000E0,2.352058868E0,-5.885760498E0,-3.985761566E0,9.974222000E0,3.040798008E-1,1.340728283E0,3.787501454E-1
9.984182000E0,2.731220398E0,-5.308111725E0,-2.795885925E0,9.984182000E0,2.093275078E-2,1.449707747E0,2.443730831E-1
9.994142000E0,2.889141998E0,-4.784350891E0,-2.012864227E0,9.994142000E0,-1.572580189E-1,1.390594959E0,8.656666428E-2
1.000410300E1,2.715054016E0,-4.820425873E0,-1.106499023E0,1.000410300E1,-2.207451612E-1,1.208139300E0,-5.284120142E-2
1.001406300E1,1.977986755E0,-5.534890137E0,2.679428101E-2,1.001406300E1,-1.941569597E-1,1.063392997E0,-9.942921251E-2
1.002402400E1,4.818479919E-1,-6.739435272E0,1.227597198E0,1.002402400E1,-7.410721481E-2,1.034550309E0,-5.014918745E-3
1.003398400E1,-1.336570587E0,-8.193511505E0,2.579885101E0,1.003398400E1,2.253719121E-1,9.717416763E-1,2.366680205E-1
1.004394400E1,-2.534529419E0,-9.549990692E0,3.645219727E0,1.004394400E1,6.772988439E-1,9.524834752E-1,5.419716835E-1
1.005390500E1,-2.774630127E0,-1.015263748E1,4.151167603E0,1.005390500E1,1.185653925E0,9.843325019E-1,8.408198953E-1
1.006386500E1,-2.090402985E0,-9.808353424E0,3.345692596E0,1.006386500E1,1.615234256E0,9.329906106E-1,1.040804386E0
1.007382600E1,-1.136436768E0,-9.409133606E0,8.918453979E-1,1.007382600E1,1.848688483E0,7.163376808E-1,1.153293848E0
1.008378600E1,-3.724255371E-1,-9.099427643E0,-2.153721313E0,1.008378600E1,1.817394614E0,5.393519402E-1,1.199100614E0
