"time_acc","acc_x","acc_y","acc_z","time_gyro","gyro_x","gyro_y","gyro_z"
1.104416675E-3,-7.481292572E0,-1.349503693E1,1.644779663E0,3.600416589E-3,-3.192103148E0,8.914543390E-1,4.640118778E-1
1.108741667E-2,-8.026907959E0,-1.363349899E1,1.147364044E0,1.358341658E-2,-3.005956888E0,1.462933302E0,5.707527399E-1
2.106941666E-2,-7.665409698E0,-1.447804276E1,2.113604736E0,2.356541657E-2,-2.682636261E0,2.080735445E0,5.425440073E-1
3.105141665E-2,-5.446274414E0,-1.555205933E1,3.107388153E0,3.354741668E-2,-2.357082129E0,2.296005011E0,4.049223363E-1
4.103441664E-2,-2.456840973E0,-1.544622940E1,2.922672272E0,4.353041667E-2,-1.966414928E0,2.211243629E0,2.425571233E-1
5.101641663E-2,3.314108276E-1,-1.469344482E1,3.273842010E0,5.351241666E-2,-1.577385545E0,1.888805151E0,1.459406689E-3
6.099941663E-2,2.559826813E0,-1.384291351E1,3.350632324E0,6.349541666E-2,-1.275124788E0,1.408490181E0,-2.481778562E-1
7.098141662E-2,4.571792908E0,-1.274105484E1,2.384241943E0,7.347741665E-2,-1.177740812E0,1.155836463E0,-6.012492776E-1
8.096441661E-2,6.357279968E0,-1.200099380E1,6.123765564E-1,8.346041664E-2,-1.219421506E0,1.002409339E0,-8.651701212E-1
9.094641660E-2,6.346652069E0,-1.192106003E1,-1.070274353E0,9.344241663E-2,-1.296082258E0,3.855046630E-1,-9.822117090E-1
1.009294166E-1,5.386548615E0,-1.196312256E1,-2.373015289E0,1.034254166E-1,-1.401880264E0,-7.165185213E-1,-9.404965043E-1
1.109114166E-1,3.860472107E0,-1.231429230E1,-2.723586273E0,1.134074166E-1,-1.555822730E0,-1.590299726E0,-9.534030557E-1
1.208944166E-1,3.405717773E0,-1.218301529E1,-2.546205139E0,1.233904166E-1,-1.769513726E0,-2.172084808E0,-1.072465301E0
1.308764166E-1,3.608545990E0,-1.160910873E1,-2.339335327E0,1.333724166E-1,-1.983552694E0,-2.561805010E0,-1.211292267E0
1.408594167E-1,2.937042389E0,-1.121617584E1,-1.382075958E0,1.433554166E-1,-2.089094639E0,-2.664475918E0,-1.299623489E0
1.508414167E-1,2.203717346E0,-1.017060013E1,7.409591675E-2,1.533374166E-1,-2.071955442E0,-2.659013987E0,-1.334312081E0
1.608234167E-1,1.511856079E0,-8.742270355E0,1.259929962E0,1.633194166E-1,-1.991273284E0,-2.889711857E0,-1.320039630E0
1.708064167E-1,1.215173035E0,-6.728058929E0,1.815275116E0,1.733024166E-1,-1.915054679E0,-3.412804127E0,-1.238361597E0
1.807884166E-1,4.457730103E-1,-4.900209961E0,2.148182831E0,1.832844167E-1,-1.858345032E0,-3.708257198E0,-1.037538409E0
1.907714166E-1,-1.746567993E0,-4.104764099E0,2.559228058E0,1.932674167E-1,-1.855476737E0,-3.839205980E0,-8.230553269E-1
2.007534166E-1,-3.176843719E0,-3.542832642E0,2.405048676E0,2.032494167E-1,-1.880620360E0,-4.053076267E0,-7.005518079E-1
2.107364166E-1,-3.755390625E0,-2.927462311E0,2.039209442E0,2.132324167E-1,-1.933741331E0,-4.315949917E0,-6.739626527E-1
2.207184166E-1,-4.150269470E0,-2.455344086E0,1.608554993E0,2.232144166E-1,-1.925370216E0,-4.330283165E0,-6.169435382E-1
2.307014166E-1,-4.894222412E0,-2.261646881E0,1.368154907E0,2.331974166E-1,-1.767061949E0,-3.972523689E0,-4.874747097E-1
2.406834166E-1,-5.305716705E0,-1.753004608E0,6.580316162E-1,2.431794166E-1,-1.497012615E0,-3.286237955E0,-3.041118085E-1
2.506664166E-1,-5.443879395E0,-1.406475220E0,-3.326083374E-1,2.531624166E-1,-9.403477311E-1,-2.272090912E0,-1.797214746E-1
2.606484166E-1,-5.888454895E0,-1.401236115E0,-1.030756531E0,2.631444166E-1,-2.523581684E-1,-1.239291906E0,-2.374226972E-2
2.706304166E-1,-6.579118652E0,-1.978884888E0,-2.055974579E0,2.731264166E-1,3.614255786E-1,-4.864432812E-1,1.881795377E-1
2.806134166E-1,-6.698570251E0,-3.279230804E0,-2.977158966E0,2.831094166E-1,7.860059142E-1,-1.137440056E-1,3.948096633E-1
2.905954167E-1,-5.830225983E0,-4.782554626E0,-3.354973297E0,2.930914166E-1,1.046067238E0,-1.011841372E-1,4.991380572E-1
3.005784167E-1,-4.256997528E0,-5.760920105E0,-3.318299561E0,3.030744166E-1,1.221034527E0,-2.119141072E-1,4.859647453E-1
3.105604167E-1,-2.863994293E0,-6.176605682E0,-3.014431458E0,3.130564166E-1,1.352535129E0,-3.298766911E-1,4.561365545E-1
3.205434167E-1,-2.408790894E0,-6.488107910E0,-2.749482422E0,3.230394166E-1,1.467610836E0,-4.286088645E-1,4.644035399E-1
3.305254166E-1,-2.526296539E0,-6.831942902E0,-2.528990936E0,3.330214167E-1,1.626654267E0,-4.446106851E-1,4.922536314E-1
3.405084166E-1,-2.706072693E0,-7.235803070E0,-2.208208008E0,3.430044167E-1,1.846110463E0,-4.274722040E-1,5.691415071E-1
3.504904166E-1,-2.917133789E0,-7.612270203E0,-2.264640656E0,3.529864167E-1,2.117904425E0,-3.409851789E-1,5.549784899E-1
3.604734166E-1,-2.187251587E0,-7.603438568E0,-2.855312347E0,3.629694167E-1,2.345811129E0,9.003175423E-3,5.591029525E-1
3.704554166E-1,-2.149679718E0,-8.337661743E0,-4.047133942E0,3.729514166E-1,2.407664299E0,5.742912292E-1,5.699014068E-1
3.804374166E-1,-1.779200134E0,-8.941805420E0,-6.124064941E0,3.829334166E-1,2.190235376E0,1.017632127E0,6.248006225E-1
3.904204166E-1,-1.561852112E0,-9.143136749E0,-8.915460205E0,3.929164166E-1,1.758949637E0,1.174707174E0,7.467420101E-1
4.004024166E-1,-1.591789856E0,-9.337133331E0,-1.091006241E1,4.028984166E-1,1.142441154E0,7.211777568E-1,8.623905778E-1
4.103854166E-1,-9.702822876E-1,-9.436975708E0,-1.158336227E1,4.128814166E-1,2.712696493E-1,1.119328439E-1,8.081022501E-1
4.203674166E-1,9.912387085E-1,-1.023990601E1,-1.132844238E1,4.228634166E-1,-8.564286232E-1,-7.225793600E-1,5.610357523E-1
4.303504166E-1,2.724484406E0,-1.124820923E1,-1.274599457E1,4.328464166E-1,-2.066746712E0,-1.657973766E0,2.290161848E-1
4.403324167E-1,3.917802887E0,-1.227896576E1,-1.443642929E1,4.428284166E-1,-2.800564289E0,-2.188849449E0,-1.830723137E-1
4.503154167E-1,5.526956635E0,-1.269435196E1,-1.237521561E1,4.528114166E-1,-2.513432503E0,-1.932998657E0,-6.697673202E-1
4.602974167E-1,6.803502045E0,-1.122889938E1,-6.220464478E0,4.627934166E-1,-1.527238011E0,-1.310702085E0,-1.145437717E0
4.702804167E-1,6.305637360E0,-8.750652924E0,-2.041604462E0,4.727764166E-1,-3.877865970E-1,-5.818963647E-1,-1.461204529E0
4.802624166E-1,4.362378387E0,-6.393354950E0,-1.190175018E0,4.827584167E-1,5.426683426E-1,1.224135831E-1,-1.628898740E0
4.902454166E-1,2.717748413E0,-5.314548340E0,-1.427731018E0,4.927414167E-1,1.101904511E0,6.225442886E-1,-1.633975029E0
5.002274166E-1,7.387138367E-1,-6.518345032E0,-1.546733551E0,5.027234167E-1,1.335886955E0,5.748077035E-1,-1.487460375E0
5.102094166E-1,-1.250349884E0,-9.176068268E0,-1.460812225E0,5.127054167E-1,1.552786946E0,2.566457093E-1,-1.260801077E0
5.201924166E-1,-2.753973083E0,-1.238509506E1,8.952882385E-1,5.226884166E-1,1.833968282E0,2.904289663E-1,-9.469669461E-1
5.301744166E-1,-4.828059998E0,-1.552436691E1,4.459226990E0,5.326704166E-1,1.905992389E0,7.686282396E-1,-6.916710734E-1
5.401572916E-1,-6.796466675E0,-1.777718216E1,5.618715820E0,5.426532916E-1,1.747096658E0,1.041803479E0,-7.459359169E-1
5.501392917E-1,-7.271728363E0,-1.821951233E1,4.514312439E0,5.526352916E-1,1.549880385E0,4.560791850E-1,-9.564960003E-1
5.601222917E-1,-7.496860199E0,-1.754770935E1,3.086581421E-1,5.626182916E-1,7.288981676E-1,-1.204798579E0,-9.155994058E-1
5.701042917E-1,-7.631729736E0,-1.697844315E1,-1.159339142E1,5.726002916E-1,-6.597569585E-1,-2.673866749E0,-6.830233932E-1
5.800872917E-1,-6.960375824E0,-1.405083115E1,-1.461126572E1,5.825832916E-1,-1.410215974E0,-2.608371258E0,-2.793193460E-1
5.900692916E-1,-6.538403320E0,-9.417216797E0,-6.608008575E0,5.925652917E-1,-1.413762331E0,-1.619159341E0,1.213922501E-1
6.000522916E-1,-5.415288849E0,-5.956114197E0,-2.393522644E-1,6.025482917E-1,-9.529536366E-1,-4.704466164E-1,3.135206699E-1
6.100342916E-1,-4.382286987E0,-3.440744934E0,4.461023254E0,6.125302917E-1,-1.753097028E-1,7.634257078E-1,3.351259828E-1
6.200172916E-1,-4.161496124E0,-1.683998108E0,8.157137146E0,6.225132917E-1,7.080991864E-1,1.902902603E0,2.795354426E-1
6.299992916E-1,-4.253105621E0,-1.178349609E0,9.534572754E0,6.324952916E-1,1.562202811E0,2.665857792E0,3.276426792E-1
6.399812916E-1,-5.097799072E0,-2.448757782E0,9.497599640E0,6.424772916E-1,2.122938633E0,3.075392962E0,5.733789802E-1
6.499642916E-1,-5.950426025E0,-4.904101868E0,8.281079407E0,6.524602916E-1,2.396189928E0,3.338153839E0,8.034632802E-1
6.599462916E-1,-4.678670654E0,-6.828649750E0,7.236252136E0,6.624422916E-1,2.481725931E0,3.266900063E0,8.590226769E-1
6.699292916E-1,-2.342029724E0,-8.343649292E0,6.206094360E0,6.724252916E-1,2.524775982E0,2.862487793E0,8.163367510E-1
6.799112916E-1,-4.656816101E-1,-9.971963196E0,4.792284393E0,6.824072916E-1,2.621641636E0,2.281283379E0,7.667564154E-1
6.898942916E-1,9.548643494E-1,-1.167781586E1,1.979783020E0,6.923902916E-1,2.752364874E0,1.895169854E0,6.986165643E-1
6.998762917E-1,2.493664398E0,-1.336854996E1,-1.726958771E0,7.023722916E-1,2.782260180E0,1.923430204E0,5.772289038E-1
7.098592917E-1,3.803740082E0,-1.434496948E1,-4.134103088E0,7.123552916E-1,2.538812876E0,2.264256716E0,4.002958834E-1
7.198412917E-1,3.690425720E0,-1.436712341E1,-4.162543945E0,7.223372916E-1,2.085672855E0,2.472863913E0,2.283640504E-1
7.298242917E-1,2.361189880E0,-1.415785858E1,-2.590812378E0,7.323202916E-1,1.583292961E0,2.373521328E0,1.158415303E-1
7.398062916E-1,9.918374634E-1,-1.367391495E1,-1.306183777E0,7.423022917E-1,1.180666447E0,1.972078323E0,4.648482800E-2
7.497892916E-1,-1.344204712E-1,-1.348680405E1,-5.031037903E-1,7.522852917E-1,9.436585307E-1,1.380364060E0,-1.461307332E-2
7.597712916E-1,-1.431922302E0,-1.370864273E1,1.487905884E-1,7.622672917E-1,8.708003163E-1,7.914541960E-1,-9.003593028E-2
7.697542916E-1,-1.794618073E0,-1.238719070E1,3.433859253E-1,7.722502917E-1,8.543714285E-1,4.444138408E-1,-2.724961042E-1
7.797362916E-1,-1.170266418E0,-9.827363892E0,2.706372070E-1,7.822322916E-1,8.949491978E-1,5.955213308E-1,-3.273199499E-1
7.897182916E-1,-1.826801147E0,-8.818611603E0,6.298901367E-1,7.922142916E-1,9.474860430E-1,1.021913052E0,-2.824406624E-1
7.997012916E-1,-1.822609863E0,-7.546257477E0,6.649172974E-1,8.021972916E-1,9.986706972E-1,1.393488169E0,-1.601358056E-1
8.096832916E-1,-1.566642151E0,-6.645430756E0,6.614744568E-1,8.121792916E-1,1.037171960E0,1.594011188E0,-1.961269602E-2
8.196662916E-1,-1.404379578E0,-6.393804016E0,8.669970703E-1,8.221622916E-1,1.079150319E0,1.598379612E0,1.346578449E-1
8.296482916E-1,-1.472188568E0,-6.766379242E0,1.182540894E0,8.321442916E-1,1.109520912E0,1.384589791E0,2.693999112E-1
8.396312916E-1,-1.459914093E0,-7.423063660E0,1.280587006E0,8.421272916E-1,1.117013216E0,1.024008393E0,3.924517930E-1
8.496132917E-1,-1.249751129E0,-8.212671661E0,1.182690582E0,8.521092916E-1,1.078239918E0,6.555236578E-1,4.124550521E-1
8.595962917E-1,-5.879772949E-1,-8.901090088E0,9.412426758E-1,8.620922916E-1,1.035971761E0,3.241507411E-1,4.313504398E-1
8.695782917E-1,-1.487905884E-1,-9.474248199E0,8.063731384E-1,8.720742916E-1,9.775808454E-1,1.127864569E-1,4.049661756E-1
8.795612917E-1,4.653822327E-1,-9.676926727E0,7.232958984E-1,8.820572916E-1,9.683583379E-1,2.401131019E-2,3.891717494E-1
8.895432916E-1,9.642947388E-1,-9.794582062E0,6.514453125E-1,8.920392917E-1,1.004883170E0,5.186445639E-2,3.483115137E-1
8.995262916E-1,1.335073700E0,-9.731413422E0,4.293072510E-1,9.020222917E-1,1.090303779E0,1.476551592E-1,3.072926998E-1
9.095082916E-1,1.440604248E0,-9.604477386E0,1.490899658E-1,9.120042917E-1,1.205627084E0,2.473396063E-1,2.480150610E-1
9.194902916E-1,1.201102295E0,-9.295220490E0,-2.017803955E-1,9.219862917E-1,1.306021810E0,3.777956069E-1,1.784042865E-1
9.294732916E-1,5.197192383E-1,-9.019643555E0,-4.686753845E-1,9.319692916E-1,1.366163373E0,4.784707129E-1,1.437593400E-1
9.394552916E-1,-3.314108276E-1,-8.869655457E0,-6.029461670E-1,9.419512916E-1,1.395382524E0,4.950102866E-1,1.490355879E-1
9.494382916E-1,-9.301657104E-1,-8.630153503E0,-5.965095520E-1,9.519342916E-1,1.420865178E0,4.108527899E-1,1.960964203E-1
9.594202916E-1,-1.548080750E0,-8.818461914E0,-4.143383789E-1,9.619162916E-1,1.431644917E0,3.423464298E-1,2.517202795E-1
9.694032916E-1,-2.017803955E0,-8.992100830E0,-1.231938171E-1,9.718992916E-1,1.456440210E0,3.999060392E-1,3.491649926E-1
9.793852916E-1,-2.439477081E0,-9.268276520E0,5.972579956E-2,9.818812916E-1,1.426261544E0,4.518648386E-1,4.779101908E-1
9.893682916E-1,-2.460583191E0,-9.395960999E0,-3.065625000E-1,9.918642916E-1,1.333906889E0,5.090053082E-1,6.285921931E-1
9.993502917E-1,-2.203118591E0,-9.439370728E0,-5.640270996E-1,1.001846292E0,1.175944686E0,4.895797074E-1,7.754474282E-1
1.009333292E0,-1.504221954E0,-9.674980774E0,-8.855584717E-1,1.011829292E0,9.792122245E-1,3.176697195E-1,8.607056141E-1
1.019315292E0,-4.590953064E-1,-1.020517822E1,-1.116079102E0,1.021811292E0,7.901767492E-1,8.192858100E-2,8.673765659E-1
1.029298292E0,5.017565918E-1,-1.090167984E1,-1.216071167E0,1.031794292E0,6.101108789E-1,-1.173566952E-1,7.920579314E-1
1.039280292E0,1.426982574E0,-1.147438889E1,-1.325044556E0,1.041776292E0,4.050386846E-1,-1.901571304E-1,6.679735184E-1
1.049263292E0,2.308499451E0,-1.190055267E1,-1.381028137E0,1.051759292E0,1.925517023E-1,-8.782152832E-2,5.115165114E-1
1.059245292E0,2.976410522E0,-1.218600906E1,-1.085243225E0,1.061741292E0,1.712715253E-2,1.330911517E-1,3.451382220E-1
1.069227292E0,3.384761353E0,-1.249182312E1,-4.543052673E-1,1.071723292E0,-7.146130502E-2,3.952676356E-1,1.837565154E-1
1.079210292E0,3.356320496E0,-1.271336243E1,4.390370178E-1,1.081706292E0,-3.429955244E-2,5.804579854E-1,4.762370884E-2
1.089192292E0,2.844983826E0,-1.253643036E1,1.256936188E0,1.091688292E0,6.881374866E-2,5.297023058E-1,-8.084169775E-2
1.099175292E0,2.283950500E0,-1.181433197E1,1.538500671E0,1.101671292E0,1.697648615E-1,2.977350950E-1,-1.649866849E-1
1.109157292E0,1.689386902E0,-1.093071945E1,1.415007477E0,1.111653292E0,2.069340795E-1,2.096749097E-2,-2.185143083E-1
1.119140292E0,1.080752563E0,-1.037282959E1,8.363108826E-1,1.121636292E0,1.404653043E-1,-1.787078083E-1,-2.697993219E-1
1.129122292E0,3.366499329E-1,-1.047461792E1,-3.233276367E-2,1.131618292E0,2.695174143E-2,-2.492985278E-1,-2.842913866E-1
1.139105292E0,-5.044509888E-1,-1.139086258E1,-6.481521606E-1,1.141601292E0,-1.099214256E-1,-2.149581313E-1,-3.102758527E-1
1.149087292E0,-1.004111938E0,-1.241697876E1,-1.048270111E0,1.151583292E0,-2.500619292E-1,-1.126219481E-1,-3.422563970E-1
1.159070292E0,-1.241667938E0,-1.256532028E1,-1.087338867E0,1.161566292E0,-3.988314271E-1,3.838461265E-2,-3.358909190E-1
1.169052292E0,-1.347198486E0,-1.215472412E1,-9.651928711E-1,1.171548292E0,-5.775179863E-1,1.662464738E-1,-3.446324468E-1
1.179035292E0,-1.148411865E0,-1.159384048E1,-8.220904541E-1,1.181531292E0,-7.562270164E-1,2.327392101E-1,-3.478974998E-1
1.189017292E0,-1.157542877E0,-1.142648849E1,-8.581654358E-1,1.191513292E0,-9.911475182E-1,1.820111126E-1,-3.923344314E-1
1.199000292E0,-9.520202637E-1,-1.182196609E1,-1.356179810E0,1.201496292E0,-1.262599587E0,1.165777743E-1,-4.773995280E-1
1.208982292E0,-4.812492371E-1,-1.183364182E1,-1.605411530E0,1.211478292E0,-1.595064044E0,1.073153540E-1,-5.804280639E-1
1.218964292E0,6.286926270E-3,-1.164653091E1,-1.804048462E0,1.221460292E0,-2.026294708E0,1.468031108E-1,-6.733617783E-1
1.228947292E0,4.056564331E-1,-1.148007706E1,-1.655407562E0,1.231443292E0,-2.472844601E0,9.493871778E-2,-7.292497754E-1
1.238929292E0,5.289999390E-1,-1.122321121E1,-8.870553589E-1,1.241425292E0,-2.830284595E0,-9.979961067E-2,-8.022225499E-1
1.248912292E0,4.056564331E-1,-1.079150894E1,1.618135071E-1,1.251408292E0,-3.103550911E0,-3.552556634E-1,-9.108065367E-1
1.258894292E0,-6.197113037E-2,-1.035546570E1,1.027313690E0,1.261390292E0,-3.254654169E0,-5.774330497E-1,-1.021930218E0
1.268877292E0,-9.249266052E-1,-1.013482452E1,1.663939819E0,1.271373292E0,-3.245515585E0,-7.171430588E-1,-1.143504143E0
1.278859292E0,-2.036365356E0,-1.090167984E1,1.665586395E0,1.281355292E0,-3.228548288E0,-7.275871634E-1,-1.178286076E0
1.288842292E0,-4.036805420E0,-1.265228943E1,4.140390015E-1,1.291338292E0,-3.288172245E0,-5.614217520E-1,-1.050415635E0
1.298824292E0,-6.671326904E0,-1.472248444E1,-9.080117798E-1,1.301320292E0,-3.257646322E0,-1.153412163E-1,-8.766551018E-1
1.308807292E0,-8.406668243E0,-1.630349670E1,-5.141807556E-1,1.311303292E0,-3.053510427E0,6.194157600E-1,-7.631733418E-1
1.318789292E0,-8.961264954E0,-1.703652237E1,7.774832153E-1,1.321285292E0,-2.713631630E0,1.494511247E0,-6.667381525E-1
1.328772292E0,-8.948541412E0,-1.675675415E1,2.048490143E0,1.331268292E0,-2.311205387E0,2.303404093E0,-5.584890842E-1
1.338754292E0,-7.900271301E0,-1.506676849E1,2.617007904E0,1.341250292E0,-1.972375989E0,2.673220873E0,-4.457587898E-1
1.348737292E0,-5.788612518E0,-1.265707947E1,2.200873260E0,1.351233292E0,-1.760678530E0,2.531049967E0,-3.465608358E-1
1.358719292E0,-3.477119293E0,-1.088671097E1,1.249002686E0,1.361215292E0,-1.656172037E0,2.010848522E0,-3.076573610E-1
1.368702292E0,-1.179996185E0,-1.003273682E1,1.713935852E-1,1.371198292E0,-1.637885690E0,1.384792566E0,-2.516818643E-1
1.378684292E0,5.912704468E-2,-9.884994049E0,-1.049018555E0,1.381180292E0,-1.689748883E0,5.353912115E-1,-1.401465684E-1
1.388666292E0,1.100810852E0,-1.009231293E1,-2.252964935E0,1.391162292E0,-1.847023368E0,-4.229856133E-1,-2.466094680E-2
1.398649292E0,1.654958496E0,-1.043510010E1,-3.097808075E0,1.401145292E0,-1.919702649E0,-1.081874490E0,-1.211579293E-1
1.408631292E0,2.998564453E0,-1.076845688E1,-2.591411133E0,1.411127292E0,-1.966294646E0,-1.096600294E0,-3.900348544E-1
1.418614292E0,3.947141876E0,-1.128742767E1,-2.673739929E0,1.421110292E0,-1.973929167E0,-9.928070307E-1,-6.127609015E-1
1.428596292E0,3.791914673E0,-1.129566055E1,-2.533182220E0,1.431092292E0,-1.955023527E0,-1.018481851E0,-7.737812400E-1
1.438579292E0,3.618425446E0,-1.064196991E1,-2.086960144E0,1.441075292E0,-1.909165502E0,-1.132757306E0,-8.767364025E-1
1.448561292E0,3.229683838E0,-9.705517273E0,-1.310674438E0,1.451057292E0,-1.834446549E0,-1.270257592E0,-8.994548321E-1
1.458544292E0,2.347568207E0,-8.631201324E0,-5.236111450E-1,1.461040292E0,-1.751484394E0,-1.446256042E0,-8.201158047E-1
1.468526292E0,1.264570312E0,-7.610473938E0,1.463955688E-1,1.471022292E0,-1.645713925E0,-1.600552320E0,-7.135664225E-1
1.478509292E0,4.123924255E-1,-6.516249390E0,8.208929443E-1,1.481005292E0,-1.514847279E0,-1.754259348E0,-6.174651980E-1
1.488491292E0,-2.378553772E-1,-5.460943909E0,1.354682922E0,1.490987292E0,-1.359318614E0,-1.906500340E0,-5.205876231E-1
1.498474292E0,-9.931846619E-1,-4.516707458E0,1.692530365E0,1.500970292E0,-1.191076875E0,-2.152467489E0,-4.438680708E-1
1.508456292E0,-1.532962189E0,-3.757186890E0,1.659000092E0,1.510952292E0,-1.028795242E0,-2.415153503E0,-3.833311200E-1
1.518439292E0,-2.136656799E0,-3.041076050E0,1.376986542E0,1.520935292E0,-8.812507391E-1,-2.590837240E0,-3.417213559E-1
1.528421292E0,-2.562670898E0,-2.577639771E0,9.440867615E-1,1.530917292E0,-6.990732551E-1,-2.580371141E0,-3.208197057E-1
1.538403042E0,-2.794538727E0,-2.297123108E0,5.857319641E-1,1.540899042E0,-4.261573255E-1,-2.324276924E0,-3.138635159E-1
1.548386042E0,-2.816842346E0,-2.178869019E0,2.312690735E-1,1.550882042E0,-8.318161219E-2,-1.889162421E0,-3.007454574E-1
1.558368042E0,-2.747985535E0,-2.227068787E0,-3.332070923E-1,1.560864042E0,2.769544721E-1,-1.359482884E0,-2.543547750E-1
1.568351042E0,-2.584974518E0,-2.321222992E0,-9.922865295E-1,1.570847042E0,6.234990358E-1,-8.055009246E-1,-1.754916161E-1
1.578333042E0,-2.383792877E0,-2.504591675E0,-1.723066864E0,1.580829042E0,9.624121189E-1,-3.086314797E-1,-6.385616958E-2
1.588316042E0,-2.258204041E0,-2.864593048E0,-2.285746765E0,1.590812042E0,1.302818656E0,4.536879063E-2,2.831073478E-2
1.598298042E0,-2.178569641E0,-3.312162323E0,-2.408491516E0,1.600794042E0,1.633117199E0,2.589662969E-1,7.459221780E-2
1.608281042E0,-2.252515869E0,-3.744163971E0,-2.249522095E0,1.610777042E0,1.942472458E0,3.542087078E-1,1.051715016E-1
1.618263042E0,-2.540516968E0,-4.077820129E0,-2.228266296E0,1.620759042E0,2.209189892E0,3.171260655E-1,1.300201267E-1
1.628246042E0,-2.742746429E0,-4.292922821E0,-2.577789459E0,1.630742042E0,2.438607454E0,1.422194391E-1,1.424708664E-1
1.638228042E0,-2.663261719E0,-4.422403564E0,-3.115022278E0,1.640724042E0,2.637018919E0,-1.672859639E-1,1.497713923E-1
1.648211042E0,-2.484982452E0,-4.737198944E0,-3.695664825E0,1.650707042E0,2.781209469E0,-5.298911929E-1,1.932880133E-1
1.658193042E0,-2.374961243E0,-5.578150177E0,-4.388424225E0,1.660689042E0,2.788096905E0,-7.845405340E-1,3.669410348E-1
1.668176042E0,-2.786904602E0,-7.411387939E0,-4.851261749E0,1.670672042E0,2.672737598E0,-9.001047611E-1,6.782404780E-1
1.678158042E0,-3.106789398E0,-1.062415695E1,-4.715344391E0,1.680654042E0,2.315330029E0,-7.850908637E-1,9.674054384E-1
1.688140042E0,-2.418520660E0,-1.521585846E1,-5.565276947E0,1.690636042E0,1.208299279E0,-1.627722532E-1,1.039099813E0
1.698123042E0,-1.609153748E-1,-2.096824631E1,-1.035546570E1,1.700619042E0,-5.751736164E-1,5.363554358E-1,7.473230958E-1
1.708105042E0,3.022664337E0,-2.554572739E1,-1.475855942E1,1.710601042E0,-2.096282721E0,8.418859839E-1,8.860895783E-2
1.718088042E0,5.626799011E0,-2.573628113E1,-1.549263290E1,1.720584042E0,-2.648150921E0,8.045727015E-1,-6.770285368E-1
1.728070042E0,5.863157501E0,-2.380844009E1,-1.459135712E1,1.730566042E0,-2.283798218E0,9.610433131E-2,-1.169413924E0
1.738053042E0,3.202440491E0,-1.839749222E1,-1.254690857E1,1.740549042E0,-1.649482846E0,-1.355928063E0,-1.370606422E0
1.748035042E0,5.589376831E-1,-1.106079895E1,-1.049617310E1,1.750531042E0,-9.424966574E-1,-2.380512953E0,-1.325495601E0
1.758018042E0,-6.092330933E-1,-6.857090607E0,-7.719896393E0,1.760514042E0,-2.430320531E-1,-2.076736927E0,-1.037247896E0
1.768000042E0,-8.931925964E-1,-4.450994110E0,-4.836442566E0,1.770496042E0,2.474994212E-1,-2.561417818E-1,-6.194273829E-1
1.777983042E0,-1.216071167E0,-3.691623230E0,-2.341430969E0,1.780479042E0,4.114044607E-1,1.682580113E0,-1.275673956E-1
1.787965042E0,-2.117047577E0,-5.136119385E0,-1.191073151E0,1.790461042E0,3.334926963E-1,2.374362946E0,3.640908897E-1
1.797948042E0,-3.110681305E0,-8.180937653E0,-5.266049194E-1,1.800444042E0,2.720184028E-1,2.048321486E0,7.381044626E-1
1.807930042E0,-3.710034943E0,-1.170805298E1,2.202370148E0,1.810426042E0,4.278035462E-1,1.395667315E0,8.120761514E-1
1.817913042E0,-3.129691772E0,-1.449615509E1,6.174809418E0,1.820409042E0,7.634795904E-1,5.195326209E-1,6.107558012E-1
1.827895042E0,-2.784359894E0,-1.566522400E1,7.014862518E0,1.830391042E0,9.181941748E-1,-3.931846023E-1,3.862069845E-1
1.837877042E0,-3.386258240E0,-1.499416946E1,4.142186279E0,1.840373042E0,7.158064842E-1,-1.182985544E0,2.331239432E-1
1.847860042E0,-2.729873199E0,-1.280407379E1,-6.126759338E-1,1.850356042E0,7.467555255E-2,-1.692476153E0,4.989158362E-2
1.857842042E0,-8.909472656E-1,-1.101185074E1,-5.236710205E0,1.860338042E0,-5.124332309E-1,-1.612079501E0,-5.876245722E-2
1.867825042E0,-3.534150696E-1,-9.948312378E0,-5.030588837E0,1.870321042E0,-7.146230936E-1,-1.018234611E0,-4.388585314E-2
1.877807042E0,-7.361691284E-1,-8.555009766E0,-2.665956116E0,1.880303042E0,-3.563054204E-1,-5.494124442E-2,-8.084244328E-4
1.887790042E0,-1.460961914E0,-6.559958496E0,2.734812927E-1,1.890286042E0,3.956847489E-1,7.735046148E-1,4.054099321E-2
1.897772042E0,-2.563569031E0,-4.783003693E0,1.963916016E0,1.900268042E0,1.167668581E0,1.376594067E0,6.431317329E-2
1.907755042E0,-3.773203583E0,-4.187541962E0,2.500550079E0,1.910251042E0,1.702655673E0,1.991896987E0,1.174768731E-1
1.917737042E0,-4.776267700E0,-4.396357727E0,2.668201447E0,1.920233042E0,1.952223420E0,2.509061098E0,3.016791940E-1
1.927720042E0,-5.678142242E0,-5.495222626E0,2.849175110E0,1.930216042E0,2.015357971E0,2.708254576E0,6.322379708E-1
1.937702042E0,-6.159241791E0,-7.149582367E0,3.281775513E0,1.940198042E0,1.970285773E0,2.594096661E0,9.802793264E-1
1.947685042E0,-5.728587341E0,-8.582253113E0,3.923640747E0,1.950181042E0,1.847996831E0,2.225891352E0,1.206911683E0
1.957667042E0,-4.332590332E0,-1.002719833E1,4.453987885E0,1.960163042E0,1.702622533E0,1.615680933E0,1.259984255E0
1.967650042E0,-2.342329102E0,-1.112157257E1,4.144132233E0,1.970146042E0,1.563668847E0,7.249985933E-1,1.211237669E0
1.977632042E0,-3.832031250E-2,-1.198931808E1,2.717449036E0,1.980128042E0,1.430364609E0,-3.160007298E-1,1.069991589E0
1.987615042E0,2.870430908E0,-1.280916321E1,3.064128113E-1,1.990111042E0,1.254983425E0,-1.033992171E0,8.267894387E-1
1.997597042E0,5.812263336E0,-1.365026413E1,-2.493514709E0,2.000093042E0,1.000991702E0,-1.095486522E0,5.053046346E-1
2.007579042E0,7.427254944E0,-1.419722672E1,-3.911216583E0,2.010075042E0,7.882322669E-1,-7.939759493E-1,2.838697135E-1
2.017562042E0,6.233936462E0,-1.384036880E1,-3.237617340E0,2.020058042E0,6.770897508E-1,-5.560864210E-1,5.496224388E-2
2.027544042E0,4.472549286E0,-1.254975266E1,-1.964963837E0,2.030040042E0,6.865209937E-1,-4.451192915E-1,-2.361533642E-1
2.037527042E0,3.096011810E0,-1.140059235E1,-8.596623230E-1,2.040023042E0,7.713311911E-1,-4.204714894E-1,-4.639761746E-1
2.047509042E0,1.443897400E0,-1.043001068E1,-2.656974792E-1,2.050005042E0,8.779448271E-1,-4.124611616E-1,-5.531765223E-1
2.057492042E0,-3.511697388E-1,-9.473799133E0,-8.577163696E-2,2.059988042E0,9.883930683E-1,-4.021850824E-1,-5.469481945E-1
2.067474042E0,-1.722019043E0,-8.661139069E0,-1.704954529E-1,2.069970042E0,1.080619693E0,-3.925723433E-1,-4.903468192E-1
2.077457042E0,-2.580034790E0,-8.179740143E0,-3.029699707E-1,2.079953042E0,1.138830543E0,-3.130751252E-1,-3.904601634E-1
2.087439042E0,-3.089724884E0,-7.980504456E0,-2.944377136E-1,2.089935042E0,1.169823050E0,-2.058536857E-1,-2.775170505E-1
2.097422042E0,-3.107388153E0,-7.785310364E0,-1.781295776E-1,2.099918042E0,1.181867003E0,-1.298673153E-1,-1.666232944E-1
2.107404042E0,-2.960244141E0,-7.712861023E0,4.595443726E-2,2.109900042E0,1.187621832E0,-8.137735724E-2,-5.208793283E-2
2.117387042E0,-2.771037598E0,-7.723189545E0,2.715353394E-1,2.119883042E0,1.192224026E0,7.193252444E-3,8.016011864E-2
2.127369042E0,-2.550695801E0,-7.851622467E0,3.808081055E-1,2.129865042E0,1.175773740E0,1.258021146E-1,1.772877276E-1
2.137351042E0,-2.094743958E0,-7.951165466E0,3.423381042E-1,2.139847042E0,1.148125648E0,1.650035828E-1,2.308564186E-1
2.147334042E0,-1.745669861E0,-8.193511505E0,3.362008667E-1,2.149830042E0,1.128436685E0,2.290107757E-1,2.714969814E-1
2.157316042E0,-1.656305695E0,-8.339907074E0,3.987707520E-1,2.159812042E0,1.131957650E0,2.946518362E-1,3.224216998E-1
2.167299042E0,-1.539847870E0,-8.288414154E0,4.556524658E-1,2.169795042E0,1.127411962E0,3.315050006E-1,3.418024182E-1
2.177281042E0,-1.197659454E0,-8.223000183E0,4.837939453E-1,2.179777042E0,1.105804682E0,2.898539603E-1,3.784523010E-1
2.187264042E0,-9.907896423E-1,-8.355474701E0,5.873785400E-1,2.189760042E0,1.061778784E0,2.216868252E-1,4.365603030E-1
2.197246042E0,-8.458909607E-1,-8.446635132E0,6.996450806E-1,2.199742042E0,1.010850072E0,1.754716635E-1,4.834306240E-1
2.207229042E0,-5.304968262E-1,-8.457861786E0,7.339237976E-1,2.209725042E0,9.580425024E-1,1.692928970E-1,5.467426181E-1
2.217211042E0,-5.031037903E-1,-8.720864868E0,5.301974487E-1,2.219707042E0,9.395428896E-1,1.292831749E-1,5.560160279E-1
2.227194042E0,-1.984872437E-1,-8.849896545E0,3.360511780E-1,2.229690042E0,9.983727336E-1,1.144038066E-1,5.792899132E-1
2.237176042E0,-3.849993896E-1,-9.099277954E0,3.302133179E-1,2.239672042E0,1.141548514E0,4.845435917E-2,5.254107118E-1
2.247159042E0,-2.477348328E-1,-9.187893677E0,3.643423462E-1,2.249655042E0,1.334108353E0,2.773560584E-2,4.886678457E-1
2.257141042E0,-6.515950012E-1,-9.476942596E0,4.363426208E-1,2.259637042E0,1.527626634E0,5.451661721E-2,4.887245595E-1
2.267124042E0,-9.216334534E-1,-9.704020386E0,4.974156189E-1,2.269620042E0,1.675853491E0,1.374037564E-1,5.540331006E-1
2.277106042E0,-1.168170776E0,-9.894723816E0,4.345463562E-1,2.279602042E0,1.729785681E0,2.003414482E-1,5.499845743E-1
2.287089042E0,-6.557862854E-1,-9.529782715E0,2.505789185E-1,2.289585042E0,1.693366885E0,2.878687382E-1,5.369960070E-1
2.297071042E0,-3.984713745E-1,-9.363628235E0,-1.109193420E-1,2.299567042E0,1.559296966E0,3.733154535E-1,5.889692307E-1
2.307053042E0,-3.984713745E-1,-9.336235199E0,-7.315287781E-1,2.309549042E0,1.324184537E0,3.416022062E-1,6.309959888E-1
2.317036042E0,8.921447754E-2,-9.509425049E0,-1.395697632E0,2.319532042E0,1.035731196E0,2.126698047E-1,6.759269834E-1
2.327018042E0,4.652325439E-1,-1.042746597E1,-1.794917450E0,2.329514042E0,7.434288263E-1,-9.469934553E-2,5.948939323E-1
2.337001042E0,1.497036896E0,-1.133966904E1,-1.958976288E0,2.339497042E0,5.181451440E-1,-3.526720107E-1,4.471121728E-1
2.346983042E0,2.106419678E0,-1.226609253E1,-1.808389435E0,2.349479042E0,3.407323956E-1,-4.560496211E-1,2.732129097E-1
2.356966042E0,2.610271912E0,-1.258792328E1,-1.505419464E0,2.359462042E0,2.003068328E-1,-2.388033122E-1,1.031660661E-1
2.366948042E0,2.683469696E0,-1.208032883E1,-8.503816223E-1,2.369444042E0,7.632742822E-2,1.432675719E-1,-4.392815754E-2
2.376931042E0,2.397414551E0,-1.107217529E1,-1.746867371E-1,2.379427042E0,-4.760010540E-2,4.424175024E-1,-1.259774864E-1
2.386913042E0,1.524280243E0,-1.066651886E1,3.344046021E-1,2.389409042E0,-9.693082422E-2,4.493013918E-1,-1.257002205E-1
2.396896042E0,5.252577209E-1,-1.051368668E1,9.484277344E-1,2.399392042E0,-5.275217816E-2,1.962992102E-1,-1.121058390E-1
2.406878042E0,-2.466870117E-1,-1.072399933E1,1.121617584E0,2.409374042E0,3.887625784E-2,-8.702389151E-2,-8.610654622E-2
2.416861042E0,-1.055904236E0,-1.078986237E1,5.984555054E-1,2.419357042E0,7.761140168E-2,-2.110262662E-1,-3.650143743E-2
2.426843042E0,-1.637295227E0,-1.079345490E1,-6.204597473E-1,2.429339042E0,-1.365613937E-2,-1.628874838E-1,4.441833496E-2
2.436826042E0,-1.892963562E0,-1.095302307E1,-1.984872437E0,2.439322042E0,-2.232844532E-1,-6.258697063E-2,1.114676744E-1
2.446808042E0,-1.578467560E0,-1.164593216E1,-2.704426117E0,2.449304042E0,-4.545404017E-1,4.286209866E-2,1.557893008E-1
2.456791042E0,-1.134490814E0,-1.237401810E1,-2.574795685E0,2.459287042E0,-7.176127434E-1,1.755735427E-1,1.680560857E-1
2.466773042E0,-5.289999390E-1,-1.278401550E1,-2.267634430E0,2.469269042E0,-1.024636865E0,3.555524051E-1,1.035586521E-1
2.476755042E0,3.261717224E-1,-1.249721191E1,-1.687590637E0,2.479251042E0,-1.327272534E0,5.420597196E-1,-3.907359391E-2
2.486738042E0,1.090632019E0,-1.195354248E1,-7.797285461E-1,2.489234042E0,-1.564956427E0,6.413235664E-1,-2.471363693E-1
2.496720042E0,1.643432465E0,-1.164323776E1,8.622070312E-2,2.499216042E0,-1.767093539E0,6.256093383E-1,-4.949283004E-1
2.506703042E0,1.583107910E0,-1.160641434E1,2.766247559E-1,2.509199042E0,-1.990885258E0,3.957618177E-1,-6.715439558E-1
2.516685042E0,9.728269958E-1,-1.165281784E1,-8.547225952E-2,2.519181042E0,-2.295845985E0,6.332367659E-2,-8.062970042E-1
2.526668042E0,4.355941772E-1,-1.168215683E1,-3.896397400E-1,2.529164042E0,-2.659742355E0,-3.386335671E-1,-8.555997610E-1
2.536650042E0,-7.334747314E-2,-1.125704086E1,-3.815565491E-1,2.539146042E0,-2.989824772E0,-7.093709111E-1,-9.245330691E-1
2.546633208E0,-6.511459351E-2,-1.047791107E1,5.014572144E-1,2.549129208E0,-3.201787710E0,-9.878476858E-1,-1.044902325E0
2.556615208E0,-1.022373962E-1,-1.043420197E1,1.408121796E0,2.559111208E0,-3.285137415E0,-1.084998369E0,-1.149588585E0
2.566598208E0,-1.217118988E0,-1.120435043E1,1.335522766E0,2.569094208E0,-3.295845509E0,-9.692141414E-1,-1.204660654E0
2.576580208E0,-3.358715515E0,-1.236638397E1,5.134323120E-1,2.579076208E0,-3.249341011E0,-6.845923066E-1,-1.152645946E0
2.586563208E0,-5.965694275E0,-1.414154251E1,-2.751278687E-1,2.589059208E0,-3.095518351E0,-9.852201492E-2,-1.055675030E0
2.596545208E0,-8.194858704E0,-1.656754761E1,2.694396973E-2,2.599041208E0,-2.827578068E0,7.597730160E-1,-9.146311283E-1
2.606528208E0,-9.824519806E0,-1.837848175E1,9.789642334E-1,2.609024208E0,-2.489686966E0,1.716155767E0,-7.100855112E-1
2.616510208E0,-1.029409332E1,-1.904564438E1,1.739233246E0,2.619006208E0,-2.153094769E0,2.438582659E0,-5.293053389E-1
2.626493208E0,-8.640032959E0,-1.700478836E1,1.820364532E0,2.628989208E0,-1.880764604E0,2.726619005E0,-4.358035326E-1
2.636475208E0,-5.988147583E0,-1.361388977E1,1.648222504E0,2.638971208E0,-1.658394933E0,2.653590441E0,-4.147539139E-1
2.646458208E0,-3.432661743E0,-1.138038437E1,1.760339355E0,2.648954208E0,-1.460194349E0,2.234963655E0,-4.698922038E-1
2.656440208E0,-9.012757874E-1,-1.030741562E1,1.681154022E0,2.658936208E0,-1.308757067E0,1.508911371E0,-5.501399040E-1
2.666423208E0,1.021924896E0,-9.961035919E0,1.063987427E0,2.668919208E0,-1.266626239E0,8.096847534E-1,-5.486122370E-1
2.676405208E0,1.472637634E0,-9.712103577E0,7.738906860E-2,2.678901208E0,-1.346198559E0,2.225980908E-1,-4.621036947E-1
2.686388208E0,1.423090668E0,-9.294172668E0,-1.154399414E0,2.688884208E0,-1.367217541E0,-3.726328313E-1,-5.370224118E-1
2.696370208E0,2.374362488E0,-8.882977753E0,-1.163380737E0,2.698866208E0,-1.331800938E0,-8.459439278E-1,-7.613977790E-1
2.706353208E0,3.185375977E0,-9.505533142E0,-1.568438416E0,2.708849208E0,-1.409116268E0,-1.106684208E0,-1.004172683E0
2.716335208E0,3.194506989E0,-1.025697052E1,-2.773133240E0,2.718831208E0,-1.522561312E0,-1.368867278E0,-1.189907670E0
2.726317208E0,2.728076935E0,-1.037372772E1,-3.077749786E0,2.728813208E0,-1.590407372E0,-1.541355610E0,-1.322996140E0
2.736300208E0,2.203417969E0,-1.005489075E1,-2.390977936E0,2.738796208E0,-1.571615815E0,-1.549849272E0,-1.386599660E0
2.746282208E0,1.528471527E0,-9.517657928E0,-1.351689148E0,2.748778208E0,-1.504768252E0,-1.519376516E0,-1.352586746E0
2.756265208E0,8.692424011E-1,-8.738977203E0,-4.908293152E-1,2.758761208E0,-1.433808327E0,-1.487608671E0,-1.212393165E0
2.766247208E0,1.245410156E-1,-7.823780365E0,2.315684509E-1,2.768743208E0,-1.386455655E0,-1.638028383E0,-1.051183105E0
2.776230208E0,-3.194357300E-1,-6.676116943E0,6.619235229E-1,2.778726208E0,-1.315449715E0,-1.796840906E0,-8.480651975E-1
2.786212208E0,-1.101559296E0,-5.790708160E0,1.213676147E0,2.788708208E0,-1.217767239E0,-2.090759277E0,-6.867089868E-1
2.796195208E0,-1.456022186E0,-5.019362183E0,1.517993317E0,2.798691208E0,-1.101649165E0,-2.405234098E0,-5.535850525E-1
2.806177208E0,-2.097887421E0,-4.354145508E0,1.687590637E0,2.808673208E0,-9.853582382E-1,-2.583409786E0,-4.450069964E-1
2.816160208E0,-2.675985260E0,-4.092040558E0,1.626218262E0,2.818656208E0,-8.737686276E-1,-2.643020630E0,-3.781307638E-1
2.826142208E0,-2.887196045E0,-3.812422028E0,1.262774048E0,2.828638208E0,-7.604247332E-1,-2.519598484E0,-3.253419995E-1
2.836125208E0,-2.998414764E0,-3.540437622E0,6.773414612E-1,2.838621208E0,-6.043767929E-1,-2.218055725E0,-2.854435742E-1
2.846107208E0,-2.898722076E0,-3.320844269E0,7.514373779E-2,2.848603208E0,-3.668023944E-1,-1.747994304E0,-2.731069326E-1
2.856090208E0,-2.705024872E0,-3.197800140E0,-3.968247986E-1,2.858586208E0,-6.730781496E-2,-1.254242659E0,-2.792026401E-1
2.866072208E0,-2.658471680E0,-3.137625275E0,-7.885601807E-1,2.868568208E0,2.703716159E-1,-7.914100885E-1,-2.407849282E-1
2.876055208E0,-2.766996002E0,-3.154091034E0,-1.006956024E0,2.878551208E0,6.043123007E-1,-5.017212629E-1,-1.698289961E-1
2.886037208E0,-2.850671997E0,-3.134182434E0,-1.084494781E0,2.888533208E0,9.177774191E-1,-3.729449809E-1,-8.928000182E-2
2.896020208E0,-2.900368652E0,-3.147055664E0,-1.022823029E0,2.898516208E0,1.217191815E0,-3.489935696E-1,-1.827746630E-2
2.906002208E0,-2.751877441E0,-3.156336365E0,-9.931846619E-1,2.908498208E0,1.510016203E0,-3.610399365E-1,3.738150001E-2
2.915985208E0,-2.562670898E0,-3.420237579E0,-1.216071167E0,2.918481208E0,1.780639410E0,-4.375240803E-1,8.101127297E-2
2.925967208E0,-2.263892212E0,-3.940256195E0,-1.789229279E0,2.928463208E0,2.014342070E0,-5.648491979E-1,1.288370639E-1
2.935950208E0,-1.957329712E0,-4.803511047E0,-2.678380280E0,2.938446208E0,2.191885710E0,-7.230468392E-1,2.102554888E-1
2.945932208E0,-1.780098267E0,-6.133345642E0,-4.028273163E0,2.948428208E0,2.232729912E0,-8.301964998E-1,3.448822498E-1
2.955915208E0,-1.562001801E0,-8.016130371E0,-5.641917572E0,2.958411208E0,2.123264790E0,-8.412268162E-1,5.246698856E-1
2.965897208E0,-1.061891785E0,-1.053314621E1,-6.350993042E0,2.968393208E0,1.864025235E0,-6.748341322E-1,7.078323364E-1
2.975880208E0,-2.396516418E-1,-1.363813934E1,-6.802304535E0,2.978376208E0,1.210628271E0,-2.278459668E-1,8.064686060E-1
2.985862208E0,1.086740112E0,-1.725162506E1,-9.379794617E0,2.988358208E0,1.289705634E-1,2.373746336E-1,7.147330642E-1
2.995845208E0,3.054697723E0,-2.103051682E1,-1.286709274E1,2.998341208E0,-9.117922783E-1,2.346808463E-1,3.564358652E-1
3.005827208E0,5.038672028E0,-2.342403946E1,-1.421444092E1,3.008323208E0,-1.537985325E0,-2.133551985E-1,-2.720515728E-1
3.015810208E0,6.191873932E0,-2.297527267E1,-1.387270157E1,3.018306208E0,-1.707041740E0,-9.392018914E-1,-8.632075787E-1
3.025792208E0,4.596641235E0,-1.959021194E1,-1.225127335E1,3.028288208E0,-1.494129539E0,-1.543405414E0,-1.124788761E0
3.035775208E0,1.308129730E0,-1.449540665E1,-9.931996307E0,3.038271208E0,-1.041724563E0,-1.705157876E0,-1.193732977E0
3.045757208E0,-7.843688965E-1,-1.070992859E1,-7.788453827E0,3.048253208E0,-4.921916723E-1,-1.400366783E0,-1.113004565E0
3.055740208E0,-2.502046967E0,-8.741372223E0,-6.342011719E0,3.058236208E0,-2.316479571E-2,-6.365947723E-1,-8.195925951E-1
3.065722208E0,-4.368216248E0,-8.752299500E0,-4.810995483E0,3.068218208E0,1.730156243E-1,3.365016282E-1,-2.581588626E-1
3.075705208E0,-5.855972443E0,-1.045515839E1,-3.420686646E0,3.078201208E0,2.929388778E-3,7.423932552E-1,4.429633021E-1
3.085687208E0,-6.393804016E0,-1.274225235E1,-3.226839752E0,3.088183208E0,-3.919698298E-1,5.436099172E-1,9.776397943E-1
3.095670208E0,-5.318290558E0,-1.459330307E1,-2.919977875E0,3.098166208E0,-9.569901228E-1,5.031338930E-1,9.980321527E-1
3.105652208E0,-2.183209991E0,-1.473116638E1,-1.596729584E0,3.108148208E0,-1.112411141E0,5.073831677E-1,4.728956521E-1
3.115634208E0,9.428892517E-1,-1.216834579E1,3.613036652E0,3.118130208E0,-5.539337993E-1,3.827424347E-1,-1.309939474E-1
3.125617208E0,2.014660492E0,-8.463549957E0,6.898704071E0,3.128113208E0,7.700840384E-2,5.046447515E-1,-5.007469058E-1
3.135599208E0,1.379082184E0,-5.645510101E0,5.862409058E0,3.138095208E0,5.707603097E-1,6.246784925E-1,-6.853327155E-1
3.145582208E0,-4.122427368E-1,-3.659589844E0,4.063450012E0,3.148078208E0,8.586334586E-1,2.617860436E-1,-5.923065543E-1
3.155564208E0,-3.255879364E0,-2.736309814E0,3.965254211E-1,3.158060208E0,8.903796673E-1,-2.097910792E-1,-2.945321202E-1
3.165547208E0,-5.369184723E0,-2.678979034E0,-3.060535583E0,3.168043208E0,7.114456892E-1,-1.159610599E-1,4.803006072E-3
3.175529208E0,-5.991590424E0,-3.079246674E0,-3.997137909E0,3.178025208E0,7.629379034E-1,4.532358348E-1,2.446022779E-1
3.185512208E0,-5.522765350E0,-3.862418060E0,-1.667083282E0,3.188008208E0,1.199516058E0,1.173225284E0,4.948283434E-1
3.195494208E0,-5.180726624E0,-5.353317719E0,1.444047089E0,3.197990208E0,1.704171419E0,2.063418627E0,7.878255844E-1
3.205477208E0,-5.314548340E0,-7.339537354E0,3.383863220E0,3.207973208E0,2.110894680E0,2.989601612E0,1.092267752E0
3.215459208E0,-5.362897797E0,-1.017374359E1,4.775219879E0,3.217955208E0,2.340984821E0,3.461879015E0,1.377113342E0
3.225442208E0,-4.810247040E0,-1.307246567E1,5.448070679E0,3.227938208E0,2.325266361E0,2.969172239E0,1.480529070E0
3.235424208E0,-2.962339783E0,-1.469524109E1,4.616100769E0,3.237920208E0,1.995696664E0,1.833503962E0,1.308778167E0
3.245407208E0,-9.156459045E-1,-1.449001785E1,2.011067963E0,3.247903208E0,1.394443274E0,6.401038766E-1,9.837254882E-1
3.255389208E0,1.248104553E0,-1.383318375E1,-1.786684570E0,3.257885208E0,8.160686493E-1,-1.925057322E-1,6.529041529E-1
3.265372208E0,3.372337189E0,-1.364472565E1,-4.425397339E0,3.267868208E0,5.142474771E-1,-4.448508620E-1,4.307019114E-1
3.275354208E0,4.684209137E0,-1.254645950E1,-3.828887787E0,3.277850208E0,5.081533790E-1,-2.535711825E-1,2.929570973E-1
3.285337208E0,5.188211060E0,-1.095766342E1,-1.428329773E0,3.287833208E0,6.649988294E-1,1.186702773E-1,1.514241844E-1
3.295319208E0,5.264103241E0,-1.012988480E1,5.242098999E-1,3.297815208E0,8.881003261E-1,2.772516608E-1,-1.023769565E-2
3.305302208E0,4.708159332E0,-1.043090881E1,1.122366028E0,3.307798208E0,1.090470910E0,8.289968967E-2,-1.697402894E-1
3.315284208E0,3.667223969E0,-1.068822372E1,8.858578491E-1,3.317780208E0,1.220987916E0,-2.747242451E-1,-3.246891201E-1
3.325267208E0,2.443518677E0,-1.026146118E1,2.423460388E-1,3.327763208E0,1.274878740E0,-6.284804344E-1,-4.501996934E-1
3.335249208E0,7.746391296E-1,-9.729617157E0,-5.501060486E-1,3.337745208E0,1.266417027E0,-8.654953837E-1,-5.028618574E-1
3.345232208E0,-9.157955933E-1,-9.211544495E0,-1.099313965E0,3.347728208E0,1.242704988E0,-9.634546638E-1,-4.989993572E-1
3.355214208E0,-2.203567657E0,-8.596174164E0,-1.330433350E0,3.357710208E0,1.223307848E0,-8.651179671E-1,-4.154525399E-1
3.365197208E0,-3.175945587E0,-8.052654419E0,-1.280587006E0,3.367693208E0,1.218895435E0,-5.406991243E-1,-2.960423827E-1
3.375179208E0,-3.681743774E0,-7.644453278E0,-1.052910461E0,3.377675208E0,1.261809349E0,-1.930814981E-1,-1.478534639E-1
3.385162208E0,-3.626209259E0,-7.515720978E0,-5.851332092E-1,3.387658208E0,1.316075683E0,3.277783468E-2,-7.140054367E-3
3.395144208E0,-3.153192902E0,-7.723488922E0,-2.847079468E-1,3.397640208E0,1.334551334E0,1.584899575E-1,1.043545157E-1
3.405127208E0,-2.444267120E0,-8.165968781E0,-1.172062683E-1,3.407623208E0,1.308469653E0,2.290722281E-1,1.543193012E-1
3.415109208E0,-1.549427948E0,-8.618477783E0,-2.013313293E-1,3.417605208E0,1.280700088E0,2.562966645E-1,1.848039776E-1
3.425092208E0,-9.849517822E-1,-8.973389740E0,-2.207908630E-1,3.427588208E0,1.260920525E0,2.666078210E-1,2.020913512E-1
3.435074208E0,-6.845265198E-1,-9.141041107E0,-2.523751831E-1,3.437570208E0,1.242670178E0,2.659603953E-1,1.959069520E-1
3.445057208E0,-4.954696655E-1,-9.106013947E0,-3.900888062E-1,3.447553208E0,1.221276879E0,2.642503977E-1,1.774028093E-1
3.455039208E0,-4.848417664E-1,-8.944499817E0,-4.951702881E-1,3.457535208E0,1.181288719E0,2.704140246E-1,1.772241145E-1
3.465022208E0,-5.792953491E-1,-8.747060394E0,-5.619314575E-1,3.467518208E0,1.121027708E0,2.509897649E-1,1.928605288E-1
3.475004208E0,-6.448590088E-1,-8.664881287E0,-6.258485413E-1,3.477500208E0,1.035158277E0,2.488549948E-1,2.556128502E-1
3.484987208E0,-8.720864868E-1,-8.757089539E0,-7.550299072E-1,3.487483208E0,9.215894938E-1,2.965414524E-1,3.766203821E-1
3.494969208E0,-9.746232605E-1,-8.916058960E0,-8.457412720E-1,3.497465208E0,8.036332726E-1,3.101467490E-1,4.617576599E-1
3.504952208E0,-5.403762817E-1,-9.148076477E0,-7.825726318E-1,3.507448208E0,7.431445718E-1,3.463805020E-1,5.235142112E-1
3.514934208E0,-1.827699280E-1,-9.383087769E0,-3.481759644E-1,3.517430208E0,7.435882688E-1,3.731111884E-1,5.015305877E-1
3.524917208E0,4.351451111E-1,-9.756411438E0,5.718109131E-2,3.527413208E0,8.295740485E-1,4.886671901E-1,5.081346035E-1
3.534899208E0,5.291496277E-1,-9.924362183E0,3.954776001E-1,3.537395208E0,9.491036534E-1,5.801587701E-1,4.896346629E-1
3.544882542E0,7.801776123E-1,-9.999356232E0,3.924838257E-1,3.547378542E0,1.078880668E0,7.059141397E-1,5.336522460E-1
3.554864542E0,6.764433289E-1,-9.823022919E0,1.477427673E-1,3.557360542E0,1.187423944E0,7.067764997E-1,5.624836087E-1
3.564846542E0,8.196954346E-1,-9.530381470E0,-1.875599670E-1,3.567342542E0,1.287124872E0,6.545242667E-1,6.180582643E-1
3.574829542E0,1.006357269E0,-9.045539703E0,-1.356179810E-1,3.577325542E0,1.361877203E0,5.157413483E-1,6.453010440E-1
3.584811542E0,1.237027588E0,-8.616382141E0,-4.640350342E-3,3.587307542E0,1.394936800E0,2.715081573E-1,6.282930374E-1
3.594794542E0,1.261875916E0,-8.367000732E0,-8.861572266E-2,3.597290542E0,1.398985624E0,-5.455167964E-2,6.162901521E-1
3.604776542E0,9.979747009E-1,-8.602910156E0,-3.222798157E-1,3.607272542E0,1.303976893E0,-3.107197881E-1,6.472751498E-1
3.614759542E0,7.789801025E-1,-9.454788666E0,-6.613247681E-1,3.617255542E0,1.146488428E0,-4.844758809E-1,6.201761961E-1
3.624741542E0,1.272952881E0,-1.024918671E1,-8.234376526E-1,3.627237542E0,9.684751630E-1,-5.368887782E-1,5.386790037E-1
3.634724542E0,1.544338531E0,-1.083551743E1,-8.168513489E-1,3.637220542E0,7.539623380E-1,-5.092339516E-1,4.425871372E-1
3.644706542E0,1.909429321E0,-1.112666199E1,-8.798703003E-1,3.647202542E0,5.054671168E-1,-4.271204174E-1,3.178398013E-1
3.654689542E0,2.189796295E0,-1.097263229E1,-7.289840698E-1,3.657185542E0,2.874131203E-1,-2.941453159E-1,2.206866294E-1
3.664671542E0,1.830543365E0,-1.086844894E1,-9.086105347E-2,3.667167542E0,1.806113422E-1,-1.603119969E-1,1.243852526E-1
3.674654542E0,1.348246307E0,-1.073477692E1,7.861651611E-1,3.677150542E0,2.034620643E-1,-1.314103007E-1,-2.018486615E-3
3.684636542E0,5.213658142E-1,-1.087413712E1,1.440155182E0,3.687132542E0,2.979624867E-1,-7.730150223E-2,-8.275818825E-2
3.694619542E0,-7.328759766E-1,-1.110151428E1,1.572330322E0,3.697115542E0,3.963708282E-1,7.358921319E-2,-1.219519302E-1
3.704601542E0,-1.904040527E0,-1.125284958E1,1.061742096E0,3.707097542E0,4.599042237E-1,2.695583701E-1,-1.214384362E-1
3.714584542E0,-2.793191528E0,-1.126242966E1,1.486408997E-1,3.717080542E0,4.460611045E-1,4.524126053E-1,-8.007101715E-2
3.724566542E0,-3.349135437E0,-1.106020020E1,-9.970765686E-1,3.727062542E0,3.374970257E-1,5.787109137E-1,2.325209789E-2
3.734549542E0,-3.480113068E0,-1.091814560E1,-1.925146637E0,3.737045542E0,1.026000977E-1,6.056730151E-1,1.738772988E-1
3.744531542E0,-3.085683289E0,-1.148980682E1,-2.453248444E0,3.747027542E0,-1.957257092E-1,5.630890131E-1,3.334493339E-1
3.754514542E0,-1.848056946E0,-1.238225098E1,-2.343676300E0,3.757010542E0,-4.533337951E-1,4.737714231E-1,4.102096260E-1
3.764496542E0,-8.173004150E-2,-1.291933411E1,-1.627565460E0,3.766992542E0,-6.738184094E-1,3.824232817E-1,3.504092097E-1
3.774479542E0,1.694027252E0,-1.316602112E1,-9.355545044E-1,3.776975542E0,-8.598828316E-1,4.095305502E-1,2.329377085E-1
3.784461542E0,2.853216705E0,-1.284044815E1,-4.251159668E-1,3.786957542E0,-1.115612388E0,4.301576316E-1,5.528611317E-2
3.794444542E0,3.473377075E0,-1.210832062E1,-3.406915283E-1,3.796940542E0,-1.396605372E0,4.706683159E-1,-1.269374788E-1
3.804426542E0,3.503913574E0,-1.152064270E1,1.269360352E-1,3.806922542E0,-1.634694457E0,4.609319270E-1,-3.552437425E-1
3.814409542E0,3.700454865E0,-1.133188522E1,7.267387390E-1,3.816905542E0,-1.789031863E0,1.153835729E-1,-6.663409472E-1
3.824391542E0,3.448379059E0,-1.200713104E1,7.394622803E-1,3.826887542E0,-1.911054015E0,-4.446208775E-1,-9.212257862E-1
3.834374542E0,2.177372131E0,-1.311392944E1,6.429130554E-1,3.836870542E0,-2.035476208E0,-8.584726453E-1,-1.075614095E0
3.844356542E0,8.686436462E-1,-1.342558136E1,9.425898743E-1,3.846852542E0,-2.225162029E0,-9.850378633E-1,-1.190447330E0
3.854339542E0,-1.204994202E-1,-1.276500504E1,9.822573853E-1,3.856835542E0,-2.502116442E0,-8.929590583E-1,-1.226213813E0
3.864321542E0,-1.434766388E0,-1.180669785E1,8.586145020E-1,3.866817542E0,-2.788770437E0,-7.195817828E-1,-1.177413225E0
3.874304542E0,-2.968477020E0,-1.138786880E1,5.815406799E-1,3.876800542E0,-3.003660679E0,-5.940142274E-1,-1.122976780E0
3.884286542E0,-4.627626801E0,-1.159997772E1,3.098556519E-2,3.886782542E0,-3.105826855E0,-4.979964495E-1,-1.034068823E0
3.894269542E0,-6.717580719E0,-1.241967316E1,-5.083428955E-1,3.896765542E0,-3.059024811E0,-3.085186481E-1,-9.047161937E-1
3.904251542E0,-8.642427979E0,-1.364023499E1,-4.631369019E-1,3.906747542E0,-2.854020119E0,2.311302722E-1,-7.441521883E-1
3.914234542E0,-1.002106110E1,-1.519385422E1,5.507048035E-1,3.916730542E0,-2.560086489E0,1.031899095E0,-5.202357769E-1
3.924216542E0,-9.988279266E0,-1.607836487E1,1.407373352E0,3.926712542E0,-2.290667534E0,1.824208140E0,-3.264236450E-1
3.934199542E0,-8.018375702E0,-1.498668503E1,1.585652618E0,3.936695542E0,-2.096133709E0,2.294620275E0,-2.019818574E-1
3.944181542E0,-5.158872070E0,-1.287427780E1,1.437011719E0,3.946677542E0,-1.957394838E0,2.286375999E0,-1.805033535E-1
3.954163542E0,-2.356998596E0,-1.105705673E1,1.674418030E0,3.956659542E0,-1.838070393E0,1.957720757E0,-2.406164855E-1
3.964146542E0,-3.273692322E-1,-9.821675720E0,2.155218201E0,3.966642542E0,-1.706632018E0,1.514582276E0,-3.487421274E-1
3.974129542E0,1.153501282E0,-9.168883209E0,2.355950775E0,3.976625542E0,-1.586468577E0,9.852703810E-1,-4.809560776E-1
3.984111542E0,2.283351746E0,-9.335786133E0,1.779200134E0,3.986607542E0,-1.549235940E0,4.062018394E-1,-5.446225405E-1
3.994093542E0,2.395917664E0,-9.317075043E0,4.459226990E-1,3.996589542E0,-1.558524728E0,-4.971694201E-2,-6.596378088E-1
4.004076542E0,2.059118042E0,-9.239087219E0,-2.577639771E-1,4.006572542E0,-1.537201285E0,-3.297175765E-1,-7.969933152E-1
4.014058542E0,1.387464752E0,-9.690249023E0,-6.005511475E-1,4.016554542E0,-1.505583167E0,-6.558576226E-1,-9.338235855E-1
4.024041542E0,9.894424438E-1,-1.014664993E1,-1.116677856E0,4.026537542E0,-1.506127715E0,-8.132163882E-1,-1.100916624E0
4.034023542E0,1.125659180E0,-1.052266800E1,-1.640438690E0,4.036519542E0,-1.537694693E0,-9.214861393E-1,-1.228717804E0
4.044006542E0,1.179696808E0,-1.070903046E1,-2.123484192E0,4.046502542E0,-1.579650521E0,-9.836879969E-1,-1.314767122E0
4.053988542E0,1.212328949E0,-1.055200699E1,-2.106269989E0,4.056484542E0,-1.555534482E0,-9.517979622E-1,-1.378740788E0
4.063971542E0,1.371448059E0,-1.009171417E1,-1.429826660E0,4.066467542E0,-1.459553719E0,-8.813171387E-1,-1.378251195E0
4.073953542E0,9.984237671E-1,-9.457183685E0,-7.497908020E-1,4.076449542E0,-1.351826429E0,-9.747840166E-1,-1.327104926E0
4.083936542E0,4.423301697E-1,-8.485554199E0,-3.836521912E-1,4.086432542E0,-1.245690584E0,-1.050427914E0,-1.190183520E0
4.093918542E0,-5.405259705E-1,-7.393275604E0,-7.185058594E-3,4.096414542E0,-1.165330768E0,-1.236217976E0,-1.075044394E0
4.103901542E0,-1.284778290E0,-6.174659729E0,1.814227295E-1,4.106397542E0,-1.064809203E0,-1.370021939E0,-9.222328067E-1
4.113883542E0,-2.188748474E0,-5.425617371E0,4.171824646E-1,4.116379542E0,-9.507857561E-1,-1.589474082E0,-8.094438910E-1
4.123866542E0,-2.344873810E0,-4.858297119E0,4.879852295E-1,4.126362542E0,-8.531844020E-1,-1.700888753E0,-6.944373846E-1
4.133848542E0,-2.797981567E0,-4.499942322E0,4.873864746E-1,4.136344542E0,-7.430214286E-1,-1.644144058E0,-5.705875754E-1
4.143831542E0,-2.921474762E0,-4.279151459E0,2.495310974E-1,4.146327542E0,-5.847740173E-1,-1.470800757E0,-4.762767851E-1
4.153813542E0,-2.780767365E0,-3.977079620E0,-1.511856079E-1,4.156309542E0,-3.470141888E-1,-1.092544794E0,-4.032153785E-1
4.163796542E0,-2.725681915E0,-3.865711212E0,-4.808001709E-1,4.166292542E0,-4.712952301E-2,-6.462520957E-1,-3.513288498E-1
4.173778542E0,-2.552791443E0,-3.852538605E0,-8.267308044E-1,4.176274542E0,2.603787482E-1,-2.553101778E-1,-2.780389190E-1
4.183761542E0,-2.320923615E0,-3.900139618E0,-1.062041473E0,4.186257542E0,5.019801855E-1,-1.081853360E-1,-1.798511446E-1
4.193743542E0,-1.987267456E0,-3.955823822E0,-1.249302063E0,4.196239542E0,6.683267951E-1,-1.644800454E-1,-6.424704939E-2
4.203726542E0,-1.605860596E0,-4.120331726E0,-1.219064941E0,4.206222542E0,7.987926006E-1,-2.864740491E-1,4.440478235E-2
4.213708542E0,-1.133892059E0,-4.301305389E0,-1.001118164E0,4.216204542E0,9.394706488E-1,-3.809424937E-1,1.213901117E-1
4.223691542E0,-7.435038757E-1,-4.514462128E0,-7.958949280E-1,4.226187542E0,1.103873491E0,-3.954348266E-1,1.905800253E-1
4.233673542E0,-6.098318481E-1,-4.739593964E0,-9.421408081E-1,4.236169542E0,1.273040414E0,-3.845368922E-1,2.613873482E-1
4.243656542E0,-5.544470215E-1,-5.097799072E0,-1.449884949E0,4.246152542E0,1.433273792E0,-3.810228705E-1,3.213434815E-1
4.253638542E0,-4.649331665E-1,-5.546266479E0,-2.138602753E0,4.256134542E0,1.581293106E0,-4.109826386E-1,3.967378139E-1
4.263621542E0,-3.579057312E-1,-6.087091827E0,-2.912792816E0,4.266117542E0,1.715220928E0,-4.455226660E-1,4.919937849E-1
4.273603542E0,-2.758763123E-1,-6.850204926E0,-3.707639923E0,4.276099542E0,1.819652796E0,-5.010450482E-1,6.153476834E-1
4.283586542E0,-9.610015869E-2,-8.015232239E0,-4.596641235E0,4.286082542E0,1.827720284E0,-5.441102386E-1,7.447949648E-1
4.293568542E0,2.487826538E-1,-9.717492371E0,-5.749992828E0,4.296064542E0,1.626132488E0,-5.094430447E-1,8.395918012E-1
4.303551542E0,7.505392456E-1,-1.187555466E1,-7.415429535E0,4.306047542E0,1.178040266E0,-4.176680446E-1,8.579015136E-1
4.313533542E0,1.347946930E0,-1.419183792E1,-9.568552094E0,4.316029542E0,5.654247999E-1,-4.079179466E-1,7.759903669E-1
4.323516542E0,1.598376160E0,-1.639540558E1,-1.161838943E1,4.326012542E0,-1.055638120E-1,-6.669840217E-1,5.757686496E-1
4.333498542E0,1.947749634E0,-1.807147018E1,-1.346719482E1,4.335994542E0,-7.978559732E-1,-1.218381047E0,2.286114991E-1
4.343480542E0,3.173999634E0,-1.843371689E1,-1.465796860E1,4.345976542E0,-1.214874864E0,-1.539719582E0,-1.972796023E-1
4.353463542E0,4.353995819E0,-1.708517120E1,-1.270033951E1,4.355959542E0,-1.189544678E0,-1.339777350E0,-6.321564913E-1
4.363445542E0,5.114264832E0,-1.431158890E1,-9.043144684E0,4.365941542E0,-8.287594318E-1,-7.723837495E-1,-9.069483280E-1
4.373428542E0,5.166955261E0,-1.103116058E1,-5.790558472E0,4.375924542E0,-3.502498865E-1,-1.824797094E-1,-9.641157389E-1
4.383410542E0,4.914879456E0,-7.680677948E0,-3.942800903E0,4.385906542E0,1.496995706E-2,8.510749042E-2,-8.576816320E-1
4.393393542E0,4.418062592E0,-4.771477661E0,-3.628753967E0,4.395889542E0,1.721196324E-1,-2.444643341E-2,-5.874232650E-1
4.403375542E0,3.547622681E0,-2.806813202E0,-3.680845642E0,4.405871542E0,2.800532281E-1,-2.593838274E-1,-2.634913325E-1
4.413358542E0,2.825374603E0,-1.974693604E0,-2.692151642E0,4.415854542E0,5.889940858E-1,-5.100117326E-1,-9.800489992E-2
4.423340542E0,2.668201447E0,-2.332599335E0,-1.150657196E0,4.425836542E0,1.025767446E0,-5.908963084E-1,-2.407824807E-2
4.433323542E0,1.438059540E0,-4.235891418E0,-4.550537109E-2,4.435819542E0,1.464556813E0,-4.613031447E-1,1.197303161E-1
4.443305542E0,-8.882528687E-1,-7.420069885E0,7.475454712E-1,4.445801542E0,1.852345467E0,-3.716758788E-1,3.872783780E-1
4.453288542E0,-3.011886749E0,-1.109118576E1,1.419348450E0,4.455784542E0,2.256896973E0,-4.029547274E-1,5.806901455E-1
4.463270542E0,-3.888463898E0,-1.416204987E1,2.769091644E0,4.465766542E0,2.584803581E0,-4.439771175E-1,5.957278609E-1
4.473253542E0,-5.157674561E0,-1.707813583E1,3.230132904E0,4.475749542E0,2.606085300E0,-4.497494996E-1,4.971110523E-1
4.483235542E0,-7.240742798E0,-2.015064651E1,2.017953644E0,4.485731542E0,2.048015594E0,-3.739104271E-1,2.821812928E-1
4.493218542E0,-8.053103485E0,-2.179048645E1,-1.586700439E0,4.495714542E0,9.124404192E-1,-3.376336694E-1,-4.736119881E-2
4.503200542E0,-5.408702545E0,-2.175111832E1,-6.551426239E0,4.505696542E0,-3.765434325E-1,-6.909027100E-1,-3.556236923E-1
4.513183542E0,-2.158661041E0,-1.957060272E1,-9.642797699E0,4.515679542E0,-1.298090339E0,-1.012142539E0,-5.955451727E-1
4.523165542E0,-6.331832886E-1,-1.480631012E1,-6.810238037E0,4.525661542E0,-1.515183210E0,-2.524377108E-1,-6.870028973E-1
4.533148542E0,-1.369801483E0,-1.082638641E1,-5.013075256E-1,4.535644542E0,-1.132751107E0,8.624770641E-1,-6.495090723E-1
4.543130083E0,-2.751578064E0,-7.713459778E0,2.889291687E0,4.545626083E0,-3.719916642E-1,1.359272003E0,-4.962769747E-1
4.553113083E0,-4.208199005E0,-5.241200867E0,3.956123199E0,4.555609083E0,3.583989143E-1,1.337498188E0,-2.599885166E-1
4.563095083E0,-5.568570099E0,-2.879412231E0,3.860023041E0,4.565591083E0,9.142522216E-1,1.310402989E0,-6.423209608E-2
4.573078083E0,-5.915099487E0,-8.422984314E-1,3.815715179E0,4.575574083E0,1.325906277E0,1.472786069E0,1.310066432E-1
4.583060083E0,-5.904022522E0,-3.293151855E-3,4.023183746E0,4.585556083E0,1.526214361E0,1.743560076E0,3.609029353E-1
4.593043083E0,-5.795498199E0,-3.842509460E-1,3.721860352E0,4.595539083E0,1.458260655E0,1.778005838E0,6.575892568E-1
4.603025083E0,-5.585784302E0,-2.363435211E0,3.281925201E0,4.605521083E0,1.217241645E0,1.741187453E0,9.909546375E-1
4.613008083E0,-5.414091339E0,-5.039570160E0,4.096381531E0,4.615504083E0,9.160792232E-1,1.446521163E0,1.354537845E0
4.622990083E0,-4.712200928E0,-8.725954285E0,5.019362183E0,4.625486083E0,6.665320992E-1,8.985700607E-1,1.666005135E0
4.632973083E0,-2.815495148E0,-1.330133972E1,6.184838562E0,4.635469083E0,5.918810368E-1,1.451122612E-1,1.731463552E0
4.642955083E0,3.912863159E-1,-1.617102219E1,7.095993805E0,4.645451083E0,7.804872990E-1,-6.904958487E-1,1.499319434E0
4.652938083E0,3.503314819E0,-1.721001160E1,6.288423157E0,4.655434083E0,1.477292538E0,-1.509688020E0,1.098696113E0
4.662920083E0,5.682782593E0,-1.830797836E1,4.530029755E0,4.665416083E0,2.322221518E0,-1.729571819E0,5.778753161E-1
4.672903083E0,7.717052307E0,-1.829226105E1,1.395547943E0,4.675399083E0,2.566732883E0,-1.090236068E0,-2.088083029E-1
4.682885083E0,9.080417175E0,-1.560549820E1,-3.525917816E0,4.685381083E0,2.010391712E0,3.203138411E-1,-8.345835209E-1
4.692867083E0,6.312523041E0,-1.186208267E1,-7.171736298E0,4.695363083E0,1.228412628E0,1.311385751E0,-1.013731837E0
4.702850083E0,2.183808746E0,-1.013991394E1,-7.104376373E0,4.705346083E0,7.298508286E-1,1.608263612E0,-1.007232785E0
4.712832083E0,-5.453160095E-1,-9.179361420E0,-4.641398163E0,4.715328083E0,6.051213741E-1,1.566332221E0,-9.942785501E-1
4.722815083E0,-2.187251587E0,-8.035140839E0,-1.945204926E0,4.725311083E0,7.722154260E-1,1.438340068E0,-9.279425740E-1
4.732797083E0,-3.742517395E0,-7.047494659E0,2.694396973E-2,4.735293083E0,1.028617263E0,1.201034904E0,-7.041954994E-1
4.742780083E0,-5.266947327E0,-6.564000092E0,9.160949707E-1,4.745276083E0,1.123037934E0,8.654786944E-1,-4.223987162E-1
4.752762083E0,-5.753136292E0,-6.529122620E0,6.312373352E-1,4.755258083E0,1.002198339E0,4.871045351E-1,-9.613642842E-2
4.762745083E0,-5.512287140E0,-6.702911224E0,3.227288818E-1,4.765241083E0,6.642194986E-1,2.834018469E-1,3.016064763E-1
4.772727083E0,-4.424199829E0,-7.163653107E0,2.700384521E-1,4.775223083E0,4.406042099E-1,1.276367605E-1,3.939430714E-1
4.782710083E0,-2.885699158E0,-7.390880585E0,1.054107971E0,4.785206083E0,5.114568472E-1,8.611444384E-2,4.277189970E-1
4.792692083E0,-2.098186798E0,-8.141419830E0,2.175126801E0,4.795188083E0,7.088751197E-1,2.291059494E-1,4.696246088E-1
4.802675083E0,-1.039438477E0,-8.702303467E0,2.452949066E0,4.805171083E0,8.558248878E-1,5.106835961E-1,4.462162256E-1
4.812657083E0,3.116519165E-1,-9.121581573E0,2.098635864E0,4.815153083E0,9.523647428E-1,6.977285743E-1,3.761096001E-1
4.822640083E0,1.118025055E0,-9.498348083E0,1.700613556E0,4.825136083E0,1.052090645E0,8.593598008E-1,3.530219197E-1
4.832622083E0,1.156195679E0,-9.570348358E0,1.430724792E0,4.835118083E0,1.081889272E0,9.571662545E-1,3.344663382E-1
4.842605083E0,1.251098328E0,-9.488468628E0,8.487350464E-1,4.845101083E0,1.075659633E0,9.672604799E-1,3.332226574E-1
4.852587083E0,9.623487854E-1,-8.990753632E0,5.619314575E-1,4.855083083E0,1.072892785E0,8.814515471E-1,3.378685415E-1
4.862570083E0,4.571493530E-1,-8.363557892E0,3.809577942E-1,4.865066083E0,1.102230191E0,7.473367453E-1,3.731583059E-1
4.872552083E0,-1.531315613E-1,-7.999514923E0,1.628613281E-1,4.875048083E0,1.167631269E0,6.033347845E-1,4.266465604E-1
4.882535083E0,-5.536985779E-1,-7.838300171E0,-8.083190918E-3,4.885031083E0,1.203006506E0,5.608262420E-1,4.832451940E-1
4.892517083E0,-7.282356262E-1,-7.865244141E0,-2.077679443E-1,4.895013083E0,1.288115025E0,4.451102912E-1,5.327855945E-1
4.902500083E0,-8.226892090E-1,-8.283923492E0,-4.519102478E-1,4.904996083E0,1.309377551E0,3.302141428E-1,5.902869105E-1
4.912482083E0,-8.782237244E-1,-9.107959900E0,-8.361611938E-1,4.914978083E0,1.237200260E0,3.101959527E-1,6.416238546E-1
4.922465083E0,-7.143145752E-1,-9.784552917E0,-9.951306152E-1,4.924961083E0,1.120826125E0,3.440918624E-1,6.991342902E-1
4.932447083E0,-4.049079895E-1,-1.015173935E1,-7.855664063E-1,4.934943083E0,9.956993461E-1,3.209452927E-1,6.829997897E-1
4.942430083E0,2.779719543E-1,-1.030696655E1,-3.806584167E-1,4.944926083E0,9.036211371E-1,3.238038123E-1,6.731147766E-1
4.952412083E0,7.691006470E-1,-1.046189438E1,2.330653381E-1,4.954908083E0,8.299775720E-1,2.843618691E-1,6.190760732E-1
4.962395083E0,1.473685455E0,-1.083282303E1,5.408253479E-1,4.964891083E0,7.885441780E-1,2.146002650E-1,5.506021380E-1
4.972377083E0,1.833537140E0,-1.121408020E1,6.391708374E-1,4.974873083E0,7.524245381E-1,1.564096659E-1,4.942754805E-1
4.982359083E0,2.143392792E0,-1.155896301E1,4.451742554E-1,4.984855083E0,6.998323798E-1,1.225960702E-1,3.633717597E-1
4.992342083E0,2.493365021E0,-1.153276749E1,2.234852600E-1,4.994838083E0,6.294671297E-1,1.933669150E-1,2.277369797E-1
5.002324083E0,2.339634705E0,-1.154129974E1,-9.729766846E-3,5.004820083E0,5.468344092E-1,2.527038455E-1,5.897889659E-2
5.012307083E0,1.988015900E0,-1.138846756E1,-1.875599670E-1,5.014803083E0,4.953307509E-1,3.295820951E-1,-6.176669523E-2
5.022289083E0,1.037791901E0,-1.129790588E1,-1.673519897E-1,5.024785083E0,4.605679512E-1,4.035929143E-1,-1.297215223E-1
5.032272083E0,-2.230361938E-2,-1.111678253E1,-3.243754578E-1,5.034768083E0,4.108605683E-1,4.704449177E-1,-1.447233707E-1
5.042254083E0,-1.013093262E0,-1.090302704E1,-6.337820435E-1,5.044750083E0,3.099535704E-1,4.917727411E-1,-1.089818031E-1
5.052237083E0,-1.711989899E0,-1.078552139E1,-9.038204956E-1,5.054733083E0,1.332634687E-1,4.364980161E-1,-7.627217099E-3
5.062219083E0,-1.956431580E0,-1.104672821E1,-1.187181244E0,5.064715083E0,-1.692952514E-1,2.876965404E-1,9.914716333E-2
5.072202083E0,-1.668729858E0,-1.169667664E1,-1.291813660E0,5.074698083E0,-5.019195080E-1,1.555818915E-1,2.019478530E-1
5.082184083E0,-1.027014313E0,-1.266231857E1,-8.818162537E-1,5.084680083E0,-7.661658525E-1,3.159045056E-2,1.292284429E-1
5.092167083E0,2.083666992E-1,-1.322993820E1,-3.532653809E-2,5.094663083E0,-8.225165009E-1,-2.178302780E-2,-1.694208197E-2
5.102149083E0,7.747888184E-1,-1.295735504E1,1.010847931E0,5.104645083E0,-7.447765470E-1,8.804772981E-3,-2.235342264E-1
5.112132083E0,1.012793884E0,-1.266007324E1,1.159339142E0,5.114628083E0,-6.407399178E-1,6.088874862E-2,-4.682885706E-1
5.122114083E0,8.418493652E-1,-1.267010239E1,5.114863586E-1,5.124610083E0,-5.919263363E-1,1.046938673E-1,-6.308380961E-1
5.132097083E0,6.568341064E-1,-1.299133438E1,-5.899232483E-1,5.134593083E0,-7.258543372E-1,6.865117699E-2,-7.358068228E-1
5.142079083E0,1.034349060E0,-1.296304321E1,-1.892215118E0,5.144575083E0,-1.119001865E0,-3.603887931E-2,-7.776106000E-1
5.152062083E0,1.347048798E0,-1.218615875E1,-2.966531067E0,5.154558083E0,-1.760883689E0,-1.875682175E-1,-7.618672848E-1
5.162044083E0,1.620380402E0,-1.119686600E1,-3.566034393E0,5.164540083E0,-2.508186579E0,-3.657979369E-1,-6.883931160E-1
5.172027083E0,1.692680054E0,-1.055500076E1,-3.274141388E0,5.174523083E0,-3.097294331E0,-5.844869018E-1,-6.161226630E-1
5.182009083E0,1.467099152E0,-1.016745667E1,-1.638642426E0,5.184505083E0,-3.394278049E0,-8.596642613E-1,-6.563217640E-1
5.191992083E0,1.046024780E0,-1.013048355E1,2.263293457E-1,5.194488083E0,-3.494611263E0,-1.103329897E0,-7.372539043E-1
5.201974083E0,2.766247559E-1,-1.075887680E1,1.463955688E0,5.204470083E0,-3.428320169E0,-1.301024079E0,-8.451225758E-1
5.211957083E0,-8.265811157E-1,-1.175939621E1,2.177671509E0,5.214453083E0,-3.337881327E0,-1.320588231E0,-9.243463278E-1
5.221939083E0,-2.504591675E0,-1.306587936E1,1.977238312E0,5.224435083E0,-3.313109398E0,-1.138902664E0,-9.446440935E-1
5.231922083E0,-4.417463837E0,-1.500629425E1,1.208886108E0,5.234418083E0,-3.226432800E0,-7.747138143E-1,-9.232162833E-1
5.241904083E0,-6.254294128E0,-1.689476715E1,1.692829742E0,5.244400083E0,-2.967875004E0,-1.588805914E-1,-8.643922806E-1
5.251887083E0,-7.775879974E0,-1.798509979E1,3.269800415E0,5.254383083E0,-2.616704702E0,5.920192003E-1,-7.476220131E-1
5.261869083E0,-8.263116760E0,-1.755234970E1,4.153113556E0,5.264365083E0,-2.315194845E0,1.372132063E0,-6.607347131E-1
5.271852083E0,-7.329059143E0,-1.505329651E1,3.832779694E0,5.274348083E0,-2.063607931E0,1.871303797E0,-5.867156386E-1
5.281834083E0,-6.373895416E0,-1.220337296E1,2.898123322E0,5.284330083E0,-1.918929219E0,2.016633034E0,-4.344131351E-1
5.291816083E0,-5.688171387E0,-1.082563797E1,1.456471252E0,5.294312083E0,-1.885499358E0,1.853816509E0,-3.172846735E-1
5.301799083E0,-4.400549011E0,-1.019425095E1,2.585124207E-1,5.304295083E0,-1.911106706E0,1.461565971E0,-2.396133095E-1
5.311781083E0,-2.844834137E0,-9.912536774E0,-6.129753113E-1,5.314277083E0,-1.915961862E0,9.651479721E-1,-1.838765442E-1
5.321764083E0,-1.768123169E0,-9.919272766E0,-9.779164124E-1,5.324260083E0,-1.849241614E0,5.214076638E-1,-1.133418530E-1
5.331746083E0,-1.629810791E0,-9.814191284E0,-7.292834473E-1,5.334242083E0,-1.794662476E0,3.493533432E-1,-8.435943164E-3
5.341729083E0,-1.706451416E0,-9.537566528E0,-1.145268402E0,5.344225083E0,-1.777816653E0,9.769373387E-2,8.076698333E-2
5.351711083E0,-1.222208405E0,-9.461075592E0,-1.464255066E0,5.354207083E0,-1.741596341E0,-3.945527077E-1,1.083599925E-1
5.361694083E0,1.219963074E-1,-9.364676056E0,-1.077160034E0,5.364190083E0,-1.704640508E0,-7.990927696E-1,2.348737046E-2
5.371676083E0,1.963766327E0,-9.200617218E0,-8.927435303E-1,5.374172083E0,-1.659914494E0,-8.295739889E-1,-1.132121608E-1
5.381659083E0,3.064277802E0,-9.120982819E0,-7.473957825E-1,5.384155083E0,-1.626674294E0,-7.065206766E-1,-2.172642946E-1
5.391641083E0,2.988385620E0,-8.801547089E0,-6.798861694E-1,5.394137083E0,-1.598632216E0,-6.173015833E-1,-3.269335330E-1
5.401624083E0,2.473456421E0,-8.037236481E0,-3.526666260E-1,5.404120083E0,-1.565656066E0,-6.163297296E-1,-3.909374774E-1
5.411606083E0,1.238524475E0,-7.246580658E0,4.221221924E-2,5.414102083E0,-1.478629470E0,-6.561748981E-1,-3.451284468E-1
5.421589083E0,-1.781295776E-2,-6.414461060E0,6.231541443E-1,5.424085083E0,-1.347722650E0,-8.129775524E-1,-2.805004418E-1
5.431571083E0,-4.745132446E-1,-5.391338654E0,1.023870850E0,5.434067083E0,-1.173000932E0,-1.055501461E0,-2.275552154E-1
5.441554083E0,-7.361691284E-1,-4.460873566E0,1.281934204E0,5.444050083E0,-9.539150596E-1,-1.240673304E0,-1.931936592E-1
5.451536083E0,-9.443861389E-1,-3.654799805E0,1.341360626E0,5.454032083E0,-6.873233318E-1,-1.293375731E0,-1.679370403E-1
5.461519083E0,-1.267863464E0,-2.892734528E0,1.204245758E0,5.464015083E0,-3.724362552E-1,-1.205233335E0,-1.340534538E-1
5.471501083E0,-1.640438690E0,-2.410138092E0,8.367599487E-1,5.473997083E0,-4.522615299E-2,-1.100557566E0,-8.482784033E-2
5.481484083E0,-1.907333679E0,-2.110610962E0,2.820135498E-1,5.483980083E0,2.857708037E-1,-9.806129932E-1,-1.542278565E-2
5.491466083E0,-2.143243103E0,-1.993404694E0,-1.023870850E-1,5.493962083E0,6.418061256E-1,-8.516121507E-1,7.148548216E-2
5.501449083E0,-2.130669250E0,-1.925446014E0,-4.408332825E-1,5.503945083E0,1.022729039E0,-7.377841473E-1,1.574978232E-1
5.511431083E0,-1.914818115E0,-1.950144653E0,-8.717871094E-1,5.513927083E0,1.409834146E0,-6.641709208E-1,2.345774323E-1
5.521414083E0,-1.697170715E0,-2.081870728E0,-1.281784515E0,5.523910083E0,1.810107112E0,-6.296953559E-1,3.227138519E-1
5.531396083E0,-1.619781647E0,-2.367027740E0,-1.592987366E0,5.533892083E0,2.214161634E0,-6.405490637E-1,4.244695008E-1
5.541379083E0,-1.601369934E0,-2.859204254E0,-1.981728973E0,5.543875208E0,2.590606451E0,-7.305943966E-1,5.227873325E-1
5.551361208E0,-1.362317047E0,-3.584595795E0,-2.671045532E0,5.553857208E0,2.893798590E0,-9.265143871E-1,5.980051160E-1
5.561343208E0,-8.653504944E-1,-4.749174042E0,-3.532354431E0,5.563839208E0,3.083521366E0,-1.120319963E0,6.524647474E-1
5.571326208E0,-2.386038208E-1,-6.475084991E0,-4.343367920E0,5.573822208E0,3.094639301E0,-1.146403790E0,6.571990252E-1
5.581309208E0,6.114784241E-1,-8.902886353E0,-5.063520355E0,5.583805208E0,2.767055511E0,-9.468880892E-1,6.122997999E-1
5.591291208E0,1.572480011E0,-1.227013412E1,-6.676116943E0,5.593787208E0,1.930695772E0,-5.672742128E-1,4.946051240E-1
5.601273208E0,2.705324249E0,-1.642758865E1,-9.703421631E0,5.603769208E0,6.941832900E-1,-1.157231033E-1,2.220329493E-1
5.611256208E0,3.815565491E0,-2.041215271E1,-1.271231461E1,5.613752208E0,-5.093333125E-1,3.751486242E-1,-1.919389218E-1
5.621238208E0,4.156706085E0,-2.300071976E1,-1.403960449E1,5.623734208E0,-1.217312098E0,3.973871171E-1,-6.917978525E-1
5.631221208E0,3.200344849E0,-2.207115280E1,-1.245095810E1,5.633717208E0,-1.429108262E0,-1.692225039E-1,-1.060155630E0
5.641203208E0,9.708810425E-1,-1.916000656E1,-9.846074982E0,5.643699208E0,-1.294381142E0,-7.576552629E-1,-1.228425741E0
5.651186208E0,-1.485361176E0,-1.598840195E1,-7.372169495E0,5.653682208E0,-9.614000320E-1,-9.396188855E-1,-1.333564997E0
5.661168208E0,-2.869233398E0,-1.292577072E1,-5.788013763E0,5.663664208E0,-5.244708657E-1,-7.796559930E-1,-1.389454722E0
5.671151208E0,-3.745810547E0,-1.085617447E1,-5.117258606E0,5.673647208E0,-1.036062166E-1,-3.461349308E-1,-1.251503468E0
5.681133208E0,-4.971910858E0,-1.057595718E1,-4.649930420E0,5.683629208E0,9.226918221E-2,3.189116120E-1,-8.695648313E-1
5.691116208E0,-5.788762207E0,-1.176119247E1,-4.025279388E0,5.693612208E0,-1.116701066E-1,8.832823634E-1,-3.163014054E-1
5.701098208E0,-5.235363007E0,-1.262175293E1,-3.900888062E0,5.703594208E0,-7.252075672E-1,1.176001906E0,2.964122295E-1
5.711081208E0,-4.242328033E0,-1.214694031E1,-2.226919098E0,5.713577208E0,-1.078040719E0,1.123803377E0,6.344083548E-1
5.721063208E0,-2.176024933E0,-1.025023453E1,4.489314423E0,5.723559208E0,-7.694237232E-1,5.405426025E-1,5.686945319E-1
5.731046208E0,-2.433938599E-1,-8.319848785E0,8.848699036E0,5.733542208E0,-2.637957335E-1,-1.428287774E-1,4.352355301E-1
5.741028208E0,-7.623646545E-1,-7.694000244E0,7.296876068E0,5.743524208E0,8.252993226E-2,-6.775028110E-1,4.203178585E-1
5.751011208E0,-2.124831390E0,-7.574698334E0,2.969524841E0,5.753507208E0,2.678281665E-1,-8.456785083E-1,4.146453142E-1
5.760993208E0,-2.767894135E0,-7.025191040E0,-4.611909485E-1,5.763489208E0,4.294133782E-1,-6.218442321E-1,3.695381284E-1
5.770976208E0,-2.715503082E0,-6.180796967E0,-1.066681824E0,5.773472208E0,6.222808361E-1,-2.907011807E-1,2.913940549E-1
5.780958208E0,-2.364033966E0,-5.497018890E0,-3.243754578E-1,5.783454208E0,9.208346605E-1,-1.003220007E-1,2.099755257E-1
5.790941208E0,-1.735041962E0,-5.384602661E0,1.163530426E0,5.793437208E0,1.274281383E0,1.169914082E-1,1.572670341E-1
5.800923208E0,-1.031504974E0,-5.821693726E0,2.949915619E0,5.803419208E0,1.537359953E0,6.311306953E-1,1.958038509E-1
5.810906208E0,-1.218915253E0,-7.133266296E0,4.112847290E0,5.813402208E0,1.544335723E0,1.322929144E0,3.629848361E-1
5.820888208E0,-2.060165863E0,-9.192683716E0,4.222120056E0,5.823384208E0,1.373069406E0,1.801240444E0,6.090192795E-1
5.830871208E0,-2.419718170E0,-1.155656799E1,4.127666473E0,5.833367208E0,1.111818433E0,1.691337466E0,7.415264845E-1
5.840853208E0,-1.706301727E0,-1.317889435E1,3.386856995E0,5.843349208E0,9.179720879E-1,1.069606304E0,6.976287961E-1
5.850836208E0,-7.316784668E-1,-1.346958984E1,2.440524902E0,5.853332208E0,1.007202625E0,8.218766749E-2,5.485035181E-1
5.860818208E0,2.878514099E-1,-1.312276108E1,1.343755646E0,5.863314208E0,1.308472157E0,-7.907208800E-1,3.215779662E-1
5.870800208E0,1.675166473E0,-1.258448044E1,-2.275268555E-1,5.873296208E0,1.496467829E0,-1.024035335E0,8.732695132E-3
5.880783208E0,2.962339783E0,-1.154129974E1,-1.977537689E0,5.883279208E0,1.411309123E0,-6.430929899E-1,-2.808752358E-1
5.890765208E0,3.179837494E0,-1.046054718E1,-2.874023438E0,5.893261208E0,1.172197819E0,2.232483821E-3,-4.329545200E-1
5.900748208E0,2.296075287E0,-1.031594788E1,-2.303410034E0,5.903244208E0,9.479325414E-1,5.456986427E-1,-4.959156215E-1
5.910730208E0,1.294208679E0,-1.050620224E1,-1.163231049E0,5.913226208E0,8.317475915E-1,7.578912973E-1,-5.504310131E-1
5.920713208E0,3.635939026E-1,-1.039064255E1,-1.664538574E-1,5.923209208E0,8.568605781E-1,6.429196596E-1,-5.873079300E-1
5.930695208E0,-6.580316162E-1,-9.861492920E0,8.937913513E-1,5.933191208E0,9.971473813E-1,3.149100840E-1,-5.551015139E-1
5.940678208E0,-1.643282776E0,-9.282496948E0,1.566193085E0,5.943174208E0,1.102436543E0,2.400000952E-2,-4.748900533E-1
5.950660208E0,-2.309397583E0,-8.678802338E0,1.099613342E0,5.953156208E0,1.122993469E0,-1.436760724E-1,-3.456367254E-1
5.960643208E0,-2.763253784E0,-8.098010101E0,1.531315613E-1,5.963139208E0,1.057167292E0,-2.455181479E-1,-1.858602315E-1
5.970625208E0,-2.877765656E0,-7.832612000E0,-6.270460510E-1,5.973121208E0,9.396236539E-1,-2.748640478E-1,-1.653324626E-2
5.980608208E0,-2.636467438E0,-7.882009277E0,-8.804690552E-1,5.983104208E0,8.293245435E-1,-1.629055291E-1,1.597959697E-1
5.990590208E0,-1.972747650E0,-8.396938477E0,-4.999603271E-1,5.993086208E0,7.710289955E-1,6.974689662E-2,2.160118371E-1
6.000573208E0,-7.815248108E-1,-8.813073120E0,2.083666992E-1,6.003069208E0,8.305791020E-1,1.437158287E-1,1.340299249E-1
6.010555208E0,4.355941772E-2,-9.182055817E0,1.075363770E0,6.013051208E0,9.275053740E-1,1.361833513E-1,8.355557919E-2
6.020538208E0,1.339714050E-1,-9.501341858E0,1.473236389E0,6.023034208E0,1.006206274E0,1.762659252E-1,6.589976698E-2
6.030520208E0,1.046324158E-1,-9.473649445E0,1.392105103E0,6.033016208E0,1.056941867E0,2.954761982E-1,4.696842283E-2
6.040503208E0,-9.909393311E-2,-9.218430176E0,1.101110229E0,6.042999208E0,1.074381709E0,4.388350248E-1,2.737132274E-2
6.050485208E0,-4.619393921E-1,-9.027277679E0,6.800358582E-1,6.052981208E0,1.054078221E0,5.249605775E-1,4.583984613E-3
6.060468208E0,-9.313632202E-1,-8.805888062E0,1.550775146E-1,6.062964208E0,9.782845974E-1,5.936019421E-1,4.336729273E-2
6.070450208E0,-1.324745178E0,-8.735234985E0,-2.204914856E-1,6.072946208E0,8.803820014E-1,6.375781894E-1,1.135016382E-1
6.080433208E0,-1.305734711E0,-8.663085022E0,-1.874102783E-1,6.082929208E0,7.830300331E-1,6.432253718E-1,1.847451627E-1
6.090415208E0,-1.099912720E0,-8.717571716E0,1.526824951E-2,6.092911208E0,6.874776483E-1,6.374329925E-1,2.749091387E-1
6.100398208E0,-8.861572266E-1,-9.012907562E0,1.709445190E-1,6.102894208E0,6.448718309E-1,5.894770026E-1,3.339498043E-1
6.110380208E0,-6.095324707E-1,-9.267228699E0,4.463717651E-1,6.112876208E0,6.758118868E-1,5.144248605E-1,3.909462690E-1
6.120363208E0,-4.409829712E-1,-9.555529175E0,6.571334839E-1,6.122859208E0,6.829141378E-1,4.753331840E-1,4.453863502E-1
6.130345208E0,-1.474433899E-1,-9.882449341E0,4.278103638E-1,6.132841208E0,6.924785972E-1,4.889134467E-1,4.733546078E-1
6.140328208E0,1.206491089E-1,-9.903106384E0,1.645079041E-1,6.142824208E0,7.585839629E-1,5.297588110E-1,4.942677021E-1
6.150310208E0,1.522334290E-1,-9.668394470E0,-1.601669312E-2,6.152806208E0,8.433536887E-1,5.319873095E-1,4.910194576E-1
6.160292208E0,1.911524963E-1,-9.385333099E0,-1.402583313E-1,6.162788208E0,9.386551380E-1,4.967917204E-1,5.143921971E-1
6.170275208E0,5.777984619E-2,-9.119336243E0,-2.350112915E-2,6.172771208E0,1.042099476E0,4.314886332E-1,5.426435471E-1
6.180257208E0,-6.122268677E-2,-8.954528961E0,2.541714478E-1,6.182753208E0,1.163505077E0,3.742194176E-1,5.883300900E-1
6.190240208E0,-4.490661621E-4,-8.967851257E0,5.281018066E-1,6.192736208E0,1.262013912E0,2.869385779E-1,5.919618607E-1
6.200222208E0,1.913021851E-1,-9.017547913E0,6.216572571E-1,6.202718208E0,1.350059390E0,1.948266327E-1,6.072461605E-1
6.210205208E0,2.380050659E-1,-9.060508575E0,6.015989685E-1,6.212701208E0,1.402441263E0,1.435549259E-1,6.102166772E-1
6.220187208E0,3.655398560E-1,-9.139843597E0,3.106040955E-1,6.222683208E0,1.380634069E0,1.681582183E-1,6.332942247E-1
6.230170208E0,4.487667847E-1,-9.448651428E0,-3.308120728E-1,6.232666208E0,1.261939645E0,1.744688451E-1,6.005765200E-1
6.240152208E0,9.107061768E-1,-9.626781006E0,-9.424401855E-1,6.242648208E0,1.104628563E0,1.677764058E-1,5.597361922E-1
6.250135208E0,1.101858673E0,-9.974507904E0,-1.191222839E0,6.252631208E0,9.401001334E-1,1.648423970E-1,5.465839505E-1
6.260117208E0,1.257534943E0,-1.059257263E1,-1.218166809E0,6.262613208E0,7.535924315E-1,8.436533809E-2,4.623371959E-1
6.270100208E0,1.770368500E0,-1.108594666E1,-1.052311707E0,6.272596208E0,5.680697560E-1,-3.708839044E-2,3.885814846E-1
6.280082208E0,1.967059479E0,-1.151944519E1,-7.708969116E-1,6.282578208E0,3.830235600E-1,-9.350691736E-2,3.499175608E-1
6.290065208E0,1.950294342E0,-1.173709259E1,-4.453239441E-1,6.292561208E0,2.180759013E-1,-1.601402611E-1,2.767943442E-1
6.300047208E0,2.309696960E0,-1.148232239E1,-1.155596924E-1,6.302543208E0,8.928820491E-2,-2.351109684E-1,1.690938026E-1
6.310030208E0,2.430196381E0,-1.125015518E1,2.395019531E-1,6.312526208E0,4.081121832E-2,-2.768991590E-1,6.571547687E-2
6.320012208E0,2.198178864E0,-1.129595993E1,6.569837952E-1,6.322508208E0,7.982107252E-2,-2.244666070E-1,-1.055144705E-2
6.329995208E0,1.739233246E0,-1.160312119E1,9.267228699E-1,6.332491208E0,1.701067537E-1,-6.148487702E-2,-7.032609731E-2
6.339977208E0,1.299896851E0,-1.178813644E1,7.541317749E-1,6.342473208E0,2.149351239E-1,1.159909815E-1,-1.468542069E-1
6.349960208E0,8.788224792E-1,-1.170640640E1,7.319778442E-2,6.352456208E0,1.743978113E-1,2.653687596E-1,-1.652180254E-1
6.359942208E0,3.153941345E-1,-1.149863846E1,-6.893165588E-1,6.362438208E0,-1.399578713E-2,3.017586172E-1,-1.384697407E-1
6.369925208E0,2.694396973E-3,-1.170925049E1,-1.463656311E0,6.372421208E0,-2.790831029E-1,2.312255949E-1,-7.501698285E-2
6.379907208E0,-3.617976379E-1,-1.245604752E1,-1.686093750E0,6.382403208E0,-5.197409391E-1,1.272832900E-1,-3.807947505E-4
6.389890208E0,-7.779322815E-1,-1.321107742E1,-1.203347626E0,6.392386208E0,-6.796512604E-1,6.268698722E-2,4.693106189E-2
6.399872208E0,-8.170010376E-1,-1.326616287E1,-6.051914978E-1,6.402368208E0,-8.110591173E-1,7.425674796E-2,5.620121956E-2
6.409855208E0,-3.543132019E-1,-1.272473877E1,-4.442761230E-1,6.412351208E0,-9.899889231E-1,1.151847392E-1,3.431615978E-2
6.419837208E0,3.722758484E-1,-1.213721054E1,-5.667214966E-1,6.422333208E0,-1.209952712E0,1.132453531E-1,-3.907039762E-2
6.429819208E0,1.231938171E0,-1.187375839E1,-5.310955811E-1,6.432315208E0,-1.408268809E0,8.529148251E-2,-1.736644357E-1
6.439802208E0,1.620380402E0,-1.192644882E1,-1.856140137E-1,6.442298208E0,-1.512999892E0,-5.059595406E-2,-3.430461586E-1
6.449784208E0,1.525178375E0,-1.222732315E1,2.320175171E-2,6.452280208E0,-1.585493326E0,-2.564191520E-1,-5.003654957E-1
6.459767208E0,1.242865448E0,-1.251382736E1,-2.173480225E-1,6.462263208E0,-1.789533973E0,-4.379291236E-1,-6.135615110E-1
6.469749208E0,1.095272369E0,-1.249691254E1,-1.121018829E0,6.472245208E0,-2.193906069E0,-5.347396135E-1,-6.748679876E-1
6.479732208E0,1.005608826E0,-1.203931412E1,-1.889071655E0,6.482228208E0,-2.626219273E0,-7.043890953E-1,-6.885095239E-1
6.489714208E0,6.613247681E-1,-1.132499954E1,-1.595083008E0,6.492210208E0,-3.004949808E0,-8.241471648E-1,-6.745487452E-1
6.499697208E0,3.143463135E-3,-1.078821579E1,-6.270460510E-1,6.502193208E0,-3.242475271E0,-9.359295964E-1,-6.631629467E-1
6.509679208E0,-9.165440369E-1,-1.044872177E1,1.772314453E-1,6.512175208E0,-3.310220957E0,-1.016519308E0,-6.893231869E-1
6.519662208E0,-1.910477142E0,-1.047012726E1,5.777984619E-1,6.522158208E0,-3.248630524E0,-9.901162982E-1,-7.383039594E-1
6.529644208E0,-3.307072906E0,-1.105241638E1,6.532415771E-1,6.532140208E0,-3.141070127E0,-7.551719546E-1,-7.445549369E-1
6.539627208E0,-5.173092499E0,-1.226998444E1,2.751278687E-1,6.542123208E0,-3.033941269E0,-2.234227955E-1,-6.817147732E-1
6.549609458E0,-7.046596527E0,-1.402239029E1,1.811233521E-1,6.552105458E0,-2.826074362E0,4.267688096E-1,-5.674366951E-1
6.559592458E0,-8.272846527E0,-1.537318130E1,9.210346985E-1,6.562088458E0,-2.544215202E0,1.017147183E0,-4.552244246E-1
6.569574458E0,-8.030051422E0,-1.567480408E1,1.664239197E0,6.572070458E0,-2.248404503E0,1.391856551E0,-3.744227886E-1
6.579557458E0,-6.234834595E0,-1.439182205E1,1.989363098E0,6.582053458E0,-2.015439272E0,1.450227261E0,-3.347162902E-1
6.589539458E0,-3.733536072E0,-1.215786758E1,2.059567108E0,6.592035458E0,-1.822010636E0,1.344825983E0,-3.793620467E-1
6.599522458E0,-1.679058380E0,-1.040007294E1,2.185455322E0,6.602018458E0,-1.642685413E0,1.154173374E0,-4.164035618E-1
6.609504458E0,-5.156776428E-1,-9.410031738E0,1.984273682E0,6.612000458E0,-1.497324467E0,7.992536426E-1,-4.444000423E-1
6.619487458E0,3.124003601E-1,-8.959618378E0,1.403182068E0,6.621983458E0,-1.381931424E0,4.297964871E-1,-4.704025090E-1
6.629469458E0,7.063810730E-1,-8.841513977E0,7.430548096E-1,6.631965458E0,-1.355944276E0,7.086177170E-2,-5.049218535E-1
6.639452458E0,9.975256348E-1,-9.116192780E0,-3.914360046E-1,6.641948458E0,-1.412215233E0,-4.357117712E-1,-5.940008759E-1
6.649434458E0,1.662891998E0,-9.389823761E0,-1.405876465E0,6.651930458E0,-1.528089643E0,-9.208508134E-1,-7.247753739E-1
6.659417458E0,2.158960419E0,-9.506131897E0,-2.107018433E0,6.661913458E0,-1.650446415E0,-1.171467543E0,-8.773816824E-1
6.669399458E0,2.471510468E0,-9.661508789E0,-2.401755524E0,6.671895458E0,-1.699707150E0,-1.125225186E0,-1.016345620E0
6.679382458E0,2.380799103E0,-9.718839569E0,-2.207459564E0,6.681878458E0,-1.652141571E0,-1.024563909E0,-1.142918706E0
6.689364458E0,2.144290924E0,-9.568252716E0,-2.040706329E0,6.691860458E0,-1.580739141E0,-1.045518517E0,-1.174962163E0
6.699347458E0,1.499581604E0,-9.504335632E0,-1.735191650E0,6.701843458E0,-1.456099987E0,-1.125207305E0,-1.150081396E0
6.709329458E0,8.788224792E-1,-8.873996429E0,-7.030879211E-1,6.711825458E0,-1.275859594E0,-1.051407933E0,-1.060257554E0
6.719311458E0,2.950364685E-1,-8.029602356E0,1.113684082E-1,6.721807458E0,-1.148706317E0,-1.221466064E0,-9.816042781E-1
6.729294458E0,-3.278182983E-2,-7.235354004E0,1.541793823E-1,6.731790458E0,-1.042811275E0,-1.341033697E0,-8.648398519E-1
6.739276458E0,-9.002279663E-1,-6.611451416E0,5.695655823E-1,6.741772458E0,-9.627352953E-1,-1.538140059E0,-7.739126086E-1
6.749259458E0,-1.195863190E0,-5.832321625E0,6.090834045E-1,6.751755458E0,-8.980162144E-1,-1.741607666E0,-6.983491778E-1
6.759241458E0,-1.782193909E0,-5.135820007E0,4.897814941E-1,6.761737458E0,-8.039606214E-1,-1.718575954E0,-6.138049960E-1
6.769224458E0,-2.236499176E0,-4.779111786E0,3.773652649E-1,6.771720458E0,-6.594838500E-1,-1.642129064E0,-5.727347732E-1
6.779206458E0,-2.132315826E0,-4.312681732E0,3.787124634E-2,6.781702458E0,-4.609830678E-1,-1.509750366E0,-5.897648335E-1
6.789189458E0,-2.202519836E0,-4.120631104E0,-2.089654541E-1,6.791685458E0,-2.079734504E-1,-1.096153259E0,-5.236718655E-1
6.799171458E0,-2.634671173E0,-4.186494141E0,-4.218228149E-1,6.801667458E0,4.734686017E-2,-7.220824361E-1,-4.497242868E-1
6.809154458E0,-2.457439728E0,-4.057013397E0,-8.958869934E-1,6.811650458E0,2.811915874E-1,-4.622063935E-1,-3.664994240E-1
6.819136458E0,-2.421364746E0,-4.003724213E0,-1.154100037E0,6.821632458E0,4.903199077E-1,-2.832824886E-1,-2.398001105E-1
6.829119458E0,-2.496358795E0,-4.133204956E0,-1.169368286E0,6.831615458E0,6.897156239E-1,-2.153202146E-1,-1.154728383E-1
6.839101458E0,-2.326312408E0,-4.246519318E0,-1.014739838E0,6.841597458E0,8.987779021E-1,-2.234659046E-1,-1.445088256E-2
6.849084458E0,-2.048639832E0,-4.318369904E0,-7.731422424E-1,6.851580458E0,1.125483990E0,-2.725282609E-1,6.169448793E-2
6.859066458E0,-1.839824066E0,-4.308041382E0,-6.831793213E-1,6.861562458E0,1.364179373E0,-3.292540908E-1,1.435761005E-1
6.869049458E0,-1.784888306E0,-4.336182861E0,-8.270301819E-1,6.871545458E0,1.595143080E0,-3.736540377E-1,2.333299667E-1
6.879031458E0,-1.696122894E0,-4.508923645E0,-1.354533234E0,6.881527458E0,1.803382874E0,-4.136050344E-1,2.957641780E-1
6.889014458E0,-1.361867981E0,-4.885241089E0,-2.142045593E0,6.891510458E0,1.974569082E0,-4.897317588E-1,3.435207903E-1
6.898996458E0,-1.016985168E0,-5.515131226E0,-3.223845978E0,6.901492458E0,2.068790197E0,-5.791033506E-1,4.014686942E-1
6.908979458E0,-8.771759033E-1,-6.512058105E0,-4.752467194E0,6.911475458E0,2.074046612E0,-6.542558670E-1,4.945283532E-1
6.918961458E0,-6.849755859E-1,-8.044421539E0,-6.103108521E0,6.921457458E0,2.043454409E0,-6.644002199E-1,6.051896811E-1
6.928944458E0,-2.688409424E-1,-1.017209702E1,-6.519243164E0,6.931440458E0,1.923709869E0,-6.142582297E-1,6.920241714E-1
6.938926458E0,4.760101318E-1,-1.282652710E1,-7.321425018E0,6.941422458E0,1.461072445E0,-4.493466616E-1,6.990237236E-1
6.948908458E0,1.567390594E0,-1.614318008E1,-9.874366150E0,6.951404458E0,5.883731246E-1,-9.627171606E-2,5.734463930E-1
6.958891458E0,2.484533386E0,-1.979109421E1,-1.297621582E1,6.961387458E0,-3.590899110E-1,1.262679994E-1,2.681506276E-1
6.968873458E0,3.532204742E0,-2.242441818E1,-1.475436813E1,6.971369458E0,-1.085642934E0,-1.091112271E-1,-2.542457283E-1
6.978856458E0,4.491410065E0,-2.252381149E1,-1.513757126E1,6.981352458E0,-1.395301104E0,-7.217316628E-1,-7.998360395E-1
6.988838458E0,4.172124023E0,-1.953168365E1,-1.306288559E1,6.991334458E0,-1.295849562E0,-1.122224927E0,-1.117774010E0
6.998821458E0,2.257455597E0,-1.446861237E1,-9.503437500E0,7.001317458E0,-9.430999756E-1,-1.054926395E0,-1.236436486E0
7.008803458E0,1.040336609E0,-9.930200043E0,-6.471642151E0,7.011299458E0,-5.219601989E-1,-7.060596943E-1,-1.222105265E0
7.018786458E0,3.873944092E-1,-6.745572510E0,-4.543651428E0,7.021282458E0,-1.528568715E-1,-1.944800913E-1,-1.039462090E0
7.028768458E0,-7.002438354E-1,-5.299878845E0,-3.335064697E0,7.031264458E0,1.536023915E-1,2.128165811E-1,-7.055402398E-1
7.038751458E0,-1.912572784E0,-5.586383057E0,-2.473456421E0,7.041247458E0,4.417874813E-1,3.979437947E-1,-2.707304657E-1
7.048733458E0,-3.246598663E0,-6.913972321E0,-1.265169067E0,7.051229458E0,7.480823994E-1,2.960320711E-1,2.076190412E-1
7.058716458E0,-4.018393707E0,-8.913214874E0,-3.427871704E-2,7.061212458E0,9.812573791E-1,1.769853532E-1,5.521543622E-1
7.068698458E0,-3.417692871E0,-1.113474518E1,8.143066406E-1,7.071194458E0,1.003384590E0,4.780799448E-1,6.897716522E-1
7.078681458E0,-2.342029724E0,-1.373798172E1,1.858834534E0,7.081177458E0,8.983633518E-1,1.153231740E0,6.170586944E-1
7.088663458E0,-1.021026764E0,-1.603779922E1,4.000880127E0,7.091159458E0,7.858881950E-1,1.252028108E0,2.354008108E-1
7.098646458E0,4.299060059E-1,-1.602941666E1,5.001848602E0,7.101142458E0,6.287095547E-1,4.097959101E-1,-1.435255557E-1
7.108628458E0,-5.397775269E-1,-1.423659485E1,2.014211426E0,7.111124458E0,2.174700797E-1,-5.638054609E-1,-2.894324064E-1
7.118611458E0,-2.523901520E0,-1.245799347E1,-3.252586212E0,7.121107458E0,-4.922029674E-1,-1.094670057E0,-2.909200490E-1
7.128593458E0,-3.157234497E0,-1.039947418E1,-6.469995575E0,7.131089458E0,-8.366993070E-1,-7.925691009E-1,-2.966946065E-1
7.138576458E0,-2.887345734E0,-7.968978424E0,-4.340523834E0,7.141072458E0,-5.892596245E-1,-2.608867884E-1,-2.642884254E-1
7.148558458E0,-3.351530457E0,-5.607189789E0,-2.118694153E0,7.151054458E0,-9.418517351E-2,3.780234158E-1,-7.380022109E-2
7.158541458E0,-4.901108093E0,-3.317850494E0,-1.232237549E0,7.161037458E0,4.325263500E-1,1.320137024E0,2.017220110E-1
7.168523458E0,-6.140530701E0,-1.620380402E0,4.861889648E-1,7.171019458E0,1.039858937E0,2.306430340E0,4.179459214E-1
7.178506458E0,-6.353238373E0,-1.411115570E0,2.670147400E0,7.181002458E0,1.629306316E0,2.986865520E0,6.203140616E-1
7.188488458E0,-6.343059540E0,-2.456691284E0,3.903432770E0,7.190984458E0,2.016671896E0,3.342200994E0,8.684122562E-1
7.198471458E0,-6.280789032E0,-4.281097412E0,4.392765198E0,7.200967458E0,2.095748425E0,3.247624159E0,1.204095364E0
7.208453458E0,-6.085145874E0,-6.753655701E0,4.562661896E0,7.210949458E0,1.903062820E0,2.700951815E0,1.542681098E0
7.218435458E0,-4.980742493E0,-9.678573303E0,5.024152222E0,7.220931458E0,1.558310032E0,1.869315267E0,1.796643138E0
7.228418458E0,-3.165317688E0,-1.269495071E1,5.345234528E0,7.230914458E0,1.196507812E0,8.686447144E-1,1.907520175E0
7.238400458E0,-7.870632935E-1,-1.501512589E1,4.855602722E0,7.240896458E0,9.715073705E-1,-7.503800094E-2,1.818932176E0
7.248383458E0,2.391576691E0,-1.605516312E1,3.528013458E0,7.250879458E0,9.218242168E-1,-6.252081990E-1,1.515976787E0
7.258365458E0,6.105054474E0,-1.634645737E1,9.021739197E-1,7.260861458E0,9.937386513E-1,-5.671800971E-1,1.020537972E0
7.268348458E0,9.373358002E0,-1.635573807E1,-2.083367615E0,7.270844458E0,1.040680051E0,-2.057694644E-1,3.432564437E-1
7.278330458E0,1.082713486E1,-1.522439072E1,-3.746708679E0,7.280826458E0,1.078109384E0,1.147737205E-1,-2.034738511E-1
7.288313458E0,9.074130249E0,-1.335762268E1,-3.692970428E0,7.290809458E0,1.077201724E0,3.912239671E-1,-5.175414681E-1
7.298295458E0,5.369484100E0,-1.181014069E1,-2.889141998E0,7.300791458E0,1.097628236E0,6.200957298E-1,-7.417964935E-1
7.308278458E0,2.193987579E0,-1.061891785E1,-1.821412354E0,7.310774458E0,1.183048844E0,7.114240527E-1,-8.740999103E-1
7.318260458E0,-1.411564636E-1,-9.466464386E0,-1.121168518E0,7.320756458E0,1.268800855E0,6.402917504E-1,-8.628061414E-1
7.328243458E0,-1.928739166E0,-8.490194550E0,-1.047970734E0,7.330739458E0,1.291827917E0,4.586561918E-1,-7.344436646E-1
7.338225458E0,-3.081641693E0,-7.898175659E0,-1.067130890E0,7.340721458E0,1.249467731E0,2.416614741E-1,-5.307007432E-1
7.348208458E0,-3.650458832E0,-7.626340942E0,-8.638536072E-1,7.350704458E0,1.175184488E0,6.886707246E-2,-2.905528247E-1
7.358190458E0,-3.745960236E0,-7.589068451E0,-3.625460815E-1,7.360686458E0,1.084987283E0,4.734840244E-3,-5.426544324E-2
7.368173458E0,-3.410208435E0,-7.655829620E0,1.061293030E-1,7.370669458E0,1.002140284E0,4.336638749E-2,1.400824487E-1
7.378155458E0,-2.592309265E0,-7.918683014E0,5.556445312E-1,7.380651458E0,9.529082179E-1,7.238903642E-2,2.811448872E-1
7.388138458E0,-1.602417755E0,-8.344248047E0,9.449848938E-1,7.390634458E0,9.617427588E-1,5.406302959E-2,3.769744933E-1
7.398120458E0,-6.948550415E-1,-8.766220551E0,1.129401398E0,7.400616458E0,9.839192033E-1,8.308035880E-2,4.017838240E-1
7.408103458E0,1.562750244E-1,-9.077573090E0,9.175918579E-1,7.410599458E0,1.013400912E0,1.795395166E-1,3.940483928E-1
7.418085458E0,7.204518127E-1,-9.170529785E0,5.330415344E-1,7.420581458E0,1.010676384E0,3.034292758E-1,3.911005855E-1
7.428068458E0,8.075706482E-1,-9.111253052E0,2.064207458E-1,7.430564458E0,9.836644530E-1,3.128829598E-1,3.722421825E-1
7.438050458E0,1.050515442E0,-8.919501801E0,7.858657837E-2,7.440546458E0,9.083763361E-1,1.824043691E-1,3.309536874E-1
7.448033458E0,9.885443115E-1,-8.744365997E0,-3.951782227E-2,7.450529458E0,8.100692034E-1,1.037918478E-1,3.177247047E-1
7.458015458E0,6.171665955E-1,-8.619226227E0,5.194198608E-2,7.460511458E0,7.414648533E-1,1.547005773E-1,3.367838860E-1
7.467997458E0,1.989363098E-1,-8.536298676E0,3.752696228E-1,7.470493458E0,7.411288023E-1,2.826636136E-1,4.127169847E-1
7.477980458E0,-2.260299683E-1,-8.440946960E0,7.517367554E-1,7.480476458E0,7.675421238E-1,3.498466611E-1,4.561069608E-1
7.487962458E0,-2.576142883E-1,-8.445737000E0,8.268804932E-1,7.490458458E0,8.235012293E-1,4.080210328E-1,4.861759245E-1
7.497945458E0,-4.373904419E-1,-8.458610229E0,1.057550812E0,7.500441458E0,9.080911279E-1,4.138992131E-1,4.806782603E-1
7.507927458E0,-4.355941772E-1,-8.397088165E0,1.320254517E0,7.510423458E0,1.027714133E0,3.736615181E-1,4.681763351E-1
7.517910458E0,-6.700067139E-1,-8.404123535E0,1.629661102E0,7.520406458E0,1.197408080E0,3.071593642E-1,4.962455630E-1
7.527892458E0,-1.008602600E0,-8.421337738E0,1.959275665E0,7.530388458E0,1.402252078E0,1.739922613E-1,5.263864398E-1
7.537875458E0,-1.226399689E0,-8.542286224E0,2.084116058E0,7.540371458E0,1.602223516E0,1.345689408E-2,5.608028173E-1
7.547856917E0,-1.401086426E0,-8.787775726E0,1.960473175E0,7.550352917E0,1.764337420E0,-8.560363948E-2,6.035082340E-1
7.557839917E0,-1.420995026E0,-9.017547913E0,1.651964722E0,7.560335917E0,1.858565331E0,-6.457550079E-2,6.398354769E-1
7.567821917E0,-1.138682098E0,-9.183103638E0,1.146316223E0,7.570317917E0,1.844207883E0,1.008888055E-2,6.855044365E-1
7.577804917E0,-6.511459351E-1,-9.321266327E0,1.978884888E-1,7.580300917E0,1.691574574E0,6.853325665E-2,7.844777107E-1
7.587786917E0,-5.598358154E-2,-9.669891357E0,-1.043180695E0,7.590282917E0,1.406142116E0,7.545667887E-2,8.186180592E-1
7.597769917E0,1.010099487E0,-1.048105453E1,-2.174977112E0,7.600265917E0,1.053216457E0,5.489789322E-2,7.893875837E-1
7.607751917E0,1.852996674E0,-1.163350800E1,-2.841391296E0,7.610247917E0,7.454695106E-1,-4.668199643E-2,7.105878592E-1
7.617734917E0,2.478096771E0,-1.253283783E1,-2.824476471E0,7.620230917E0,5.187286139E-1,-1.623337120E-1,5.787294507E-1
7.627716917E0,2.836750946E0,-1.283281403E1,-2.296823730E0,7.630212917E0,3.340935409E-1,-1.910812110E-1,3.961724639E-1
7.637699917E0,3.055595856E0,-1.247356110E1,-1.485061798E0,7.640195917E0,1.678760946E-1,-6.151885912E-2,2.354063541E-1
7.647681917E0,2.714604950E0,-1.192195816E1,-5.423222351E-1,7.650177917E0,3.971092403E-2,2.212148309E-1,1.336182058E-1
7.657664917E0,2.035467224E0,-1.142588974E1,4.460723877E-1,7.660160917E0,-6.912268698E-3,4.917800725E-1,6.573171914E-2
7.667646917E0,1.304088135E0,-1.127994324E1,1.171164551E0,7.670142917E0,-9.257714264E-3,5.203659534E-1,-4.522541910E-2
7.677629917E0,7.090754700E-1,-1.139400604E1,1.263971558E0,7.680125917E0,5.964908749E-2,3.917225599E-1,-9.371572733E-2
7.687611917E0,-1.651066589E-1,-1.141750717E1,8.602610779E-1,7.690107917E0,5.886691809E-2,1.582954377E-1,-1.210938245E-1
7.697594917E0,-7.411088562E-1,-1.155267609E1,-2.975811768E-1,7.700090917E0,-8.842127770E-2,-4.719137214E-3,-1.050217152E-1
7.707576917E0,-1.294807434E0,-1.160925842E1,-1.649120636E0,7.710072917E0,-4.110528529E-1,-2.082034387E-2,-1.984796859E-2
7.717558917E0,-1.475781097E0,-1.208676544E1,-2.709515533E0,7.720054917E0,-8.289296031E-1,-1.485217479E-3,1.821412006E-3
7.727541917E0,-8.294252014E-1,-1.276081375E1,-2.747985535E0,7.730037917E0,-1.178846359E0,4.569188133E-2,-1.702551171E-2
7.737523917E0,-1.197509766E-1,-1.316602112E1,-1.827998657E0,7.740019917E0,-1.439193487E0,5.723258853E-2,-1.946710646E-1
7.747506917E0,8.711883545E-1,-1.325164307E1,-6.373745728E-1,7.750002917E0,-1.559239507E0,8.389616013E-2,-4.318071902E-1
7.757488917E0,1.201701050E0,-1.310404999E1,6.683601379E-1,7.759984917E0,-1.527619004E0,3.624764830E-2,-6.050891876E-1
7.767471917E0,9.574090576E-1,-1.315973419E1,1.451381836E0,7.769967917E0,-1.525873542E0,-1.076253653E-1,-7.098523378E-1
7.777453917E0,8.705895996E-1,-1.303294785E1,1.172212372E0,7.779949917E0,-1.784454942E0,-2.533323467E-1,-7.493427396E-1
7.787436917E0,1.056053925E0,-1.270647675E1,-1.203497314E-1,7.789932917E0,-2.262011766E0,-3.979446590E-1,-7.541942596E-1
7.797418917E0,1.242566071E0,-1.200847824E1,-1.036444702E0,7.799914917E0,-2.762569666E0,-5.482308865E-1,-7.101078629E-1
7.807401917E0,6.471043396E-1,-1.116019226E1,-6.524931335E-1,7.809897917E0,-3.142835379E0,-6.552891731E-1,-6.667907238E-1
7.817383917E0,-3.378474426E-1,-1.052476364E1,4.676275635E-1,7.819879917E0,-3.314144135E0,-7.400910258E-1,-7.226465940E-1
7.827366917E0,-1.203647003E0,-1.035591476E1,1.374292145E0,7.829862917E0,-3.276739836E0,-7.658957243E-1,-8.322755694E-1
7.837348917E0,-2.401156769E0,-1.064840652E1,1.785786438E0,7.839844917E0,-3.136119127E0,-7.171614766E-1,-9.002063870E-1
7.847331917E0,-4.127666473E0,-1.147034729E1,1.127605133E0,7.849827917E0,-3.095571756E0,-6.038019061E-1,-8.508135676E-1
7.857313917E0,-6.369255066E0,-1.321437057E1,-5.255570984E-1,7.859809917E0,-3.112712383E0,-2.538934946E-1,-7.112749815E-1
7.867296917E0,-8.190218353E0,-1.528127243E1,-5.909710693E-1,7.869792917E0,-3.014054537E0,4.344321787E-1,-5.826941133E-1
7.877278917E0,-9.003177795E0,-1.706675949E1,8.592132568E-1,7.879774917E0,-2.759283543E0,1.175017834E0,-4.486184418E-1
7.887261917E0,-8.419242096E0,-1.755713974E1,2.074985046E0,7.889757917E0,-2.529354811E0,1.780559063E0,-3.327003419E-1
7.897243917E0,-6.127507782E0,-1.596744553E1,2.359692993E0,7.899739917E0,-2.325429916E0,1.933950067E0,-3.009774387E-1
7.907226917E0,-3.542383575E0,-1.341390564E1,2.404000854E0,7.909722917E0,-2.115822792E0,1.701721072E0,-2.926316261E-1
7.917208917E0,-1.709445190E0,-1.126871658E1,2.664309540E0,7.919704917E0,-1.918074727E0,1.471670270E0,-2.975983620E-1
7.927191917E0,-3.739224243E-1,-9.890083466E0,2.354603577E0,7.929687917E0,-1.752354264E0,1.187704325E0,-3.205396235E-1
7.937173917E0,8.610095215E-1,-9.295519867E0,1.254840546E0,7.939669917E0,-1.683427811E0,8.696477413E-1,-3.579663038E-1
7.947156917E0,1.497336273E0,-9.274413757E0,2.978805542E-2,7.949652917E0,-1.699957609E0,4.536076486E-1,-4.143201411E-1
7.957138917E0,1.421294403E0,-9.326954498E0,-1.008901978E0,7.959634917E0,-1.788205147E0,-2.258586138E-2,-4.676808119E-1
7.967120917E0,8.632548523E-1,-9.200916595E0,-1.571282501E0,7.969616917E0,-1.817209125E0,-5.489418507E-1,-5.213549733E-1
7.977103917E0,9.017248535E-1,-9.222471771E0,-1.136736145E0,7.979599917E0,-1.730860591E0,-8.197345734E-1,-6.399539709E-1
7.987085917E0,1.544488220E0,-9.227411499E0,-4.120930481E-1,7.989581917E0,-1.628205538E0,-9.249904156E-1,-7.871519327E-1
7.997068917E0,1.749561768E0,-9.261690216E0,-4.161346436E-1,7.999564917E0,-1.577607870E0,-1.081339002E0,-9.275869131E-1
8.007050917E0,2.018851776E0,-9.304800568E0,-7.189549255E-1,8.009546917E0,-1.512925982E0,-1.096360803E0,-9.978826046E-1
8.017033917E0,1.830543365E0,-9.153764648E0,-3.080593872E-1,8.019529917E0,-1.445742011E0,-1.133184075E0,-1.074216843E0
8.027015917E0,1.772613831E0,-8.607101440E0,-6.077362061E-2,8.029511917E0,-1.353361487E0,-1.034458876E0,-1.081180811E0
8.036998917E0,1.306483154E0,-8.128247223E0,3.207829285E-1,8.039494917E0,-1.262534738E0,-9.623023868E-1,-1.060114503E0
8.046980917E0,4.399351501E-1,-7.437134399E0,5.165757751E-1,8.049476917E0,-1.171052694E0,-1.011402845E0,-9.863529205E-1
8.056963917E0,-2.845582581E-1,-6.664740601E0,5.243595886E-1,8.059459917E0,-1.105352998E0,-1.133689404E0,-9.231587648E-1
8.066945917E0,-1.181792450E0,-5.889203339E0,4.939727783E-1,8.069441917E0,-1.011558294E0,-1.344900370E0,-8.574252725E-1
8.076928917E0,-1.671573944E0,-5.312153320E0,5.502557373E-1,8.079424917E0,-8.867256641E-1,-1.538160086E0,-8.170516491E-1
8.086910917E0,-2.239942017E0,-4.686753845E0,7.171586609E-1,8.089406917E0,-7.035664916E-1,-1.514342427E0,-7.393310666E-1
8.096893917E0,-2.602338409E0,-4.353846130E0,7.183561707E-1,8.099389917E0,-4.903576076E-1,-1.459585309E0,-7.088495493E-1
8.106875917E0,-2.672243042E0,-3.781735840E0,4.751119995E-1,8.109371917E0,-2.114658058E-1,-1.157144189E0,-6.420804262E-1
8.116858917E0,-3.076701965E0,-3.668720856E0,2.546205139E-1,8.119354917E0,9.681570530E-2,-8.635075092E-1,-5.753867626E-1
8.126840917E0,-2.914289703E0,-3.507356415E0,-2.794688416E-1,8.129336917E0,4.305721223E-1,-5.115446448E-1,-4.748567045E-1
8.136823917E0,-2.925815735E0,-3.535497894E0,-6.936575317E-1,8.139319917E0,7.629125118E-1,-1.949817687E-1,-3.754590750E-1
8.146805917E0,-2.602188721E0,-3.467539215E0,-1.008153534E0,8.149301917E0,1.088075399E0,6.089396030E-2,-2.707031071E-1
8.156788917E0,-2.310445404E0,-3.375330963E0,-1.091380463E0,8.159284917E0,1.407286406E0,2.487147152E-1,-1.555173844E-1
8.166770917E0,-2.212998047E0,-3.497476959E0,-1.102457428E0,8.169266917E0,1.693995595E0,3.750596046E-1,-2.166504413E-2
8.176752917E0,-2.159409485E0,-3.730991364E0,-1.254990234E0,8.179248917E0,1.922000766E0,4.742037654E-1,1.235602051E-1
8.186735917E0,-1.971550140E0,-3.994144135E0,-1.642833710E0,8.189231917E0,2.062108517E0,5.363901854E-1,2.601271272E-1
8.196717917E0,-1.618584137E0,-4.323758698E0,-2.141297150E0,8.199213917E0,2.117153645E0,5.434010625E-1,3.883573711E-1
8.206700917E0,-1.301992493E0,-4.782105560E0,-2.685864716E0,8.209196917E0,2.089895964E0,4.906449616E-1,5.274238586E-1
8.216682917E0,-1.135388947E0,-5.478457489E0,-3.252735901E0,8.219178917E0,1.989878774E0,3.669781685E-1,6.833171844E-1
8.226665917E0,-9.291178894E-1,-6.570436707E0,-3.920048218E0,8.229161917E0,1.825771332E0,1.846821457E-1,8.405795097E-1
8.236647917E0,-4.505630493E-1,-8.326435089E0,-4.844974823E0,8.239143917E0,1.573672056E0,1.285220403E-2,9.671400189E-1
8.246630917E0,3.339555359E-1,-1.101619171E1,-6.281537476E0,8.249126917E0,1.181317806E0,-7.747130096E-2,1.002893448E0
8.256612917E0,1.300944672E0,-1.441891571E1,-8.562194824E0,8.259108917E0,6.756197810E-1,-2.642474137E-2,9.294109344E-1
8.266595917E0,2.051334229E0,-1.836530914E1,-1.144639709E1,8.269091917E0,1.397875547E-1,-1.469996274E-1,7.276570797E-1
8.276577917E0,2.981799316E0,-2.191173431E1,-1.421818314E1,8.279073917E0,-5.249853134E-1,-1.034841418E0,3.399727046E-1
8.286560917E0,4.857848053E0,-2.295416656E1,-1.621997040E1,8.289056917E0,-1.131572723E0,-2.112901211E0,-1.963130981E-1
8.296542917E0,6.907386017E0,-2.058234879E1,-1.442056229E1,8.299038917E0,-1.394418597E0,-2.345915556E0,-7.127900124E-1
8.306525917E0,7.436236267E0,-1.676199326E1,-9.581275635E0,8.309021917E0,-1.328603864E0,-1.745778918E0,-1.045105100E0
8.316507917E0,6.546187134E0,-1.326242065E1,-5.392985229E0,8.319003917E0,-1.074880838E0,-8.089196682E-1,-1.077977419E0
8.326490917E0,4.853806458E0,-9.836644592E0,-2.745141449E0,8.328986917E0,-7.835104465E-1,-1.497611851E-1,-9.322441816E-1
8.336472917E0,3.670816498E0,-6.519243164E0,-1.565294952E0,8.338968917E0,-5.157045126E-1,6.013486534E-2,-7.275650501E-1
8.346455917E0,2.818638611E0,-3.931125183E0,-1.108444977E0,8.348951917E0,-1.536440849E-1,8.349105716E-2,-5.180214047E-1
8.356437917E0,1.854493561E0,-2.674638062E0,-4.340972900E-1,8.358933917E0,4.176208377E-1,2.279809117E-1,-3.502605855E-1
8.366420917E0,7.499404907E-1,-3.110681305E0,3.902384949E-1,8.368916917E0,1.078213453E0,5.140238404E-1,-2.235234082E-1
8.376402917E0,5.837860107E-2,-4.716841278E0,7.217990112E-1,8.378898917E0,1.703154802E0,7.436575890E-1,-1.534359455E-1
8.386385917E0,3.727249146E-2,-6.605613556E0,1.185235291E0,8.388881917E0,2.290372372E0,8.764284253E-1,-2.102454305E-1
8.396367917E0,5.583389282E-1,-8.511450348E0,2.326611786E0,8.398863917E0,2.837841511E0,9.638537765E-1,-3.098302186E-1
8.406350917E0,3.019221497E-1,-1.133981873E1,3.656745758E0,8.408846917E0,3.238732338E0,9.725114107E-1,-2.268130928E-1
8.416332917E0,-1.545985107E0,-1.558079956E1,4.443958740E0,8.418828917E0,3.085019827E0,9.654451609E-1,8.192666620E-2
8.426314917E0,-3.820205841E0,-1.998808456E1,2.155218201E0,8.428810917E0,1.827789426E0,9.122474790E-1,2.811960876E-1
8.436297917E0,-4.451143799E0,-2.266781204E1,-5.321733398E0,8.438793917E0,-2.892364860E-1,1.646139324E-1,5.686727539E-2
8.446279917E0,-3.099005585E0,-2.214270401E1,-1.223286163E1,8.448775917E0,-1.817665458E0,-8.311262727E-1,-3.731717169E-1
8.456262917E0,-1.808838501E0,-1.786025940E1,-8.708291016E0,8.458758917E0,-2.136014223E0,-1.412589669E0,-5.900413394E-1
8.466244917E0,-2.477797394E0,-1.339504486E1,-3.136427765E0,8.468740917E0,-1.645430446E0,-1.732232928E0,-6.087895036E-1
8.476227917E0,-3.916605377E0,-9.934990082E0,-7.816744995E-1,8.478723917E0,-7.744256258E-1,-1.031631470E0,-4.964907467E-1
8.486209917E0,-5.510490875E0,-6.286028137E0,2.872376862E0,8.488705917E0,1.178011969E-1,1.220270023E-1,-1.947716624E-1
8.496192917E0,-7.674840088E0,-1.927391968E0,4.768334198E0,8.498688917E0,9.678522944E-1,7.879093885E-1,2.092156112E-1
8.506174917E0,-8.454119568E0,1.203647003E0,4.288132782E0,8.508670917E0,1.505311251E0,1.176376462E0,7.402682900E-1
8.516157917E0,-8.821306000E0,1.613345032E0,2.823877716E0,8.518653917E0,1.639479756E0,1.544721723E0,1.114597321E0
8.526139917E0,-7.493267670E0,1.399589539E-1,2.273322601E0,8.528635917E0,1.506813645E0,2.011154413E0,1.376410842E0
8.536122917E0,-6.137686615E0,-2.321971436E0,3.070714417E0,8.538618917E0,1.232726336E0,2.237140179E0,1.661062479E0
8.546105208E0,-4.848567352E0,-5.155878296E0,4.613406372E0,8.548601208E0,8.539649844E-1,1.936960220E0,1.875501871E0
8.556088208E0,-3.093317413E0,-8.896749115E0,6.139782257E0,8.558584208E0,5.262961984E-1,1.221220613E0,1.991368651E0
8.566070208E0,-1.261277161E0,-1.320269485E1,7.497608643E0,8.568566208E0,4.566391408E-1,2.125451714E-1,1.953653812E0
8.576053208E0,9.204359436E-1,-1.661380142E1,8.101303253E0,8.578549208E0,8.220046163E-1,-9.294189811E-1,1.696330190E0
8.586035208E0,3.740721130E0,-1.838821152E1,7.284152527E0,8.588531208E0,1.810541272E0,-1.836777091E0,1.290420532E0
8.596018208E0,6.270759888E0,-1.967433701E1,5.205574951E0,8.598514208E0,2.780537844E0,-1.857127905E0,6.342471242E-1
8.606000208E0,9.366172943E0,-1.942121338E1,3.176394653E-1,8.608496208E0,2.755171299E0,-7.152709961E-1,-3.227843344E-1
8.615983208E0,1.161060562E1,-1.573842178E1,-6.822811890E0,8.618479208E0,1.931954741E0,6.003221273E-1,-9.051945806E-1
8.625965208E0,8.611741791E0,-1.177990356E1,-9.143585815E0,8.628461208E0,1.187217951E0,1.186807513E0,-1.006926060E0
8.635948208E0,3.946692810E0,-1.016760635E1,-6.767576752E0,8.638444208E0,8.346292377E-1,1.189465284E0,-1.044567823E0
8.645930208E0,6.610253906E-1,-9.176517334E0,-3.568579102E0,8.648426208E0,8.520111442E-1,9.648239017E-1,-1.075206518E0
8.655912208E0,-1.595232697E0,-7.943381653E0,-5.998027039E-1,8.658408208E0,1.081102371E0,7.120019794E-1,-9.737792015E-1
8.665895208E0,-3.468736725E0,-6.477330322E0,1.356628876E0,8.668391208E0,1.294918060E0,4.683147073E-1,-7.590911388E-1
8.675877208E0,-4.756508789E0,-5.698948975E0,1.681752777E0,8.678373208E0,1.370615959E0,1.767846048E-1,-4.627827406E-1
8.685860208E0,-5.477858734E0,-5.552403717E0,1.064586182E0,8.688356208E0,1.260375500E0,-1.045591757E-1,-8.087214082E-2
8.695842208E0,-5.854475555E0,-5.954018555E0,3.417393494E-1,8.698338208E0,1.040583611E0,-3.011092544E-1,2.497950941E-1
8.705825208E0,-4.955295410E0,-6.734794922E0,1.860630798E-1,8.708321208E0,8.420087695E-1,-3.029625416E-1,4.377634227E-1
8.715807208E0,-3.466940460E0,-7.628436584E0,6.309379578E-1,8.718303208E0,7.243713140E-1,-3.874270618E-2,5.405262709E-1
8.725790208E0,-2.240091705E0,-8.493637390E0,1.200653229E0,8.728286208E0,6.916703582E-1,2.857632339E-1,6.223844290E-1
8.735772208E0,-1.248703308E0,-9.113498383E0,1.673519897E0,8.738268208E0,7.501279712E-1,6.194071770E-1,6.267423034E-1
8.745755208E0,-2.480342102E-1,-9.455537109E0,1.761387177E0,8.748251208E0,8.966015577E-1,8.697903752E-1,5.306623578E-1
8.755737208E0,4.885839844E-1,-9.619745636E0,1.726509705E0,8.758233208E0,1.086175084E0,9.593810439E-1,4.521470666E-1
8.765720208E0,6.556365967E-1,-9.537267151E0,1.459614716E0,8.768216208E0,1.169910669E0,9.564100504E-1,4.039382637E-1
8.775702208E0,8.405021667E-1,-9.415270844E0,8.789721680E-1,8.778198208E0,1.184090614E0,8.443884850E-1,4.135641754E-1
8.785685208E0,9.431886292E-1,-9.251661072E0,6.357279968E-1,8.788181208E0,1.146101952E0,6.226587892E-1,4.210529923E-1
8.795667208E0,9.364526367E-1,-9.096284180E0,3.728746033E-1,8.798163208E0,1.137019396E0,4.809487462E-1,4.454075992E-1
8.805650208E0,6.435118103E-1,-8.993897095E0,4.209246826E-1,8.808146208E0,1.229188561E0,4.051533341E-1,4.734922349E-1
8.815632208E0,3.507206726E-1,-9.014404449E0,6.328839111E-1,8.818128208E0,1.419800878E0,3.725759685E-1,5.178862214E-1
8.825615208E0,-5.134323120E-2,-9.325457611E0,4.547543335E-1,8.828111208E0,1.592203736E0,3.722321689E-1,5.737984776E-1
8.835597208E0,-3.583547974E-1,-9.766590271E0,-5.150788879E-1,8.838093208E0,1.653441906E0,4.518760741E-1,6.134746671E-1
8.845580208E0,-3.905378723E-1,-9.956096191E0,-1.751507721E0,8.848076208E0,1.564208746E0,6.517761350E-1,6.553126574E-1
8.855562208E0,-2.216889954E-1,-9.757459259E0,-2.528092804E0,8.858058208E0,1.318528414E0,8.194573522E-1,7.028273940E-1
8.865544208E0,4.713697815E-1,-9.566157074E0,-2.659519501E0,8.868040208E0,9.760120511E-1,8.122713566E-1,7.488942146E-1
8.875527208E0,1.164129181E0,-9.933792572E0,-2.136207733E0,8.878023208E0,6.375422478E-1,5.392739177E-1,7.481710315E-1
8.885509208E0,1.930685120E0,-1.096065720E1,-1.359173584E0,8.888005208E0,4.141323268E-1,1.418927610E-1,7.324269414E-1
8.895492208E0,2.664459229E0,-1.215322723E1,-4.855902100E-1,8.897988208E0,3.089585602E-1,-2.148199975E-1,6.062779427E-1
8.905474208E0,3.572770386E0,-1.257864258E1,2.803669739E-1,8.907970208E0,2.547754943E-1,-2.410651743E-1,4.475809634E-1
8.915457208E0,4.244124298E0,-1.209739334E1,7.176077271E-1,8.917953208E0,1.580772996E-1,4.443129897E-2,2.582311332E-1
8.925439208E0,4.489164734E0,-1.158111694E1,6.855743408E-1,8.927935208E0,4.959050193E-2,3.613945842E-1,1.008731946E-1
8.935422208E0,4.027973785E0,-1.109702362E1,7.217990112E-1,8.937918208E0,-3.193233907E-2,4.177236855E-1,-5.605524778E-2
8.945404208E0,3.282823334E0,-1.098834961E1,7.400610352E-1,8.947900208E0,-1.380233746E-2,3.002700210E-1,-1.640589386E-1
8.955387208E0,2.200873260E0,-1.101738922E1,1.003513184E0,8.957883208E0,3.060117923E-2,1.791534871E-1,-2.043804973E-1
8.965369208E0,1.182540894E0,-1.119057907E1,5.809419250E-1,8.967865208E0,-3.986659646E-2,4.060174525E-2,-2.453828007E-1
8.975352208E0,3.751199341E-1,-1.137918686E1,-6.869215393E-1,8.977848208E0,-2.698746622E-1,-6.506178062E-3,-2.709882259E-1
8.985334208E0,-1.312770081E-1,-1.209604614E1,-1.885329437E0,8.987830208E0,-5.440582633E-1,-4.798597470E-2,-3.884123266E-1
8.995317208E0,-3.070115662E-1,-1.292996201E1,-2.074386292E0,8.997813208E0,-7.902886271E-1,9.414236993E-3,-5.419784188E-1
9.005299208E0,-7.420069885E-1,-1.342333603E1,-1.724563751E0,9.007795208E0,-9.685494304E-1,2.549254894E-1,-7.063000202E-1
9.015282208E0,-1.510808258E0,-1.298714310E1,-1.024619293E0,9.017778208E0,-1.075108409E0,5.034462214E-1,-7.813806534E-1
9.025264208E0,-2.375410309E0,-1.225366837E1,-2.074685669E-1,9.027760208E0,-1.199760079E0,5.241544247E-1,-7.646064758E-1
9.035247208E0,-2.536774750E0,-1.163710052E1,-2.769241333E-2,9.037743208E0,-1.456420660E0,3.031133115E-1,-6.997341514E-1
9.045229208E0,-1.947300568E0,-1.132709518E1,-4.403842163E-1,9.047725208E0,-1.833266020E0,-7.113164663E-2,-5.920987725E-1
9.055212208E0,-1.167721710E0,-1.172122559E1,-6.915618896E-1,9.057708208E0,-2.321469307E0,-3.213093579E-1,-5.234493017E-1
9.065194208E0,-1.869612122E-1,-1.262923737E1,-8.616082764E-1,9.067690208E0,-2.712133884E0,-5.276321769E-1,-5.114515424E-1
9.075176208E0,4.388873291E-1,-1.308503952E1,-1.318757629E-1,9.077672208E0,-2.935055017E0,-6.757441163E-1,-5.624903440E-1
9.085159208E0,3.655398560E-1,-1.320823334E1,8.906478882E-1,9.087655208E0,-3.036556959E0,-6.200733781E-1,-6.464456916E-1
9.095141208E0,-4.809498596E-1,-1.290002426E1,1.657054138E0,9.097637208E0,-3.041854620E0,-4.300658405E-1,-7.120772600E-1
9.105124208E0,-1.904190216E0,-1.259750336E1,1.727407837E0,9.107620208E0,-3.047999620E0,-2.974572182E-1,-7.659468651E-1
9.115106208E0,-3.594026184E0,-1.272324188E1,8.412506104E-1,9.117602208E0,-3.112808943E0,-1.440089345E-1,-7.945671082E-1
9.125089208E0,-5.780080261E0,-1.338067474E1,-2.989283752E-1,9.127585208E0,-3.181854486E0,2.529602647E-1,-7.222394347E-1
9.135071208E0,-8.191715240E0,-1.432775528E1,-4.417314148E-1,9.137567208E0,-3.057246208E0,8.148653507E-1,-5.448139906E-1
9.145054208E0,-1.010668304E1,-1.523217453E1,6.909631348E-1,9.147550208E0,-2.745444298E0,1.549654841E0,-3.610524535E-1
9.155036208E0,-1.073328003E1,-1.553334824E1,1.869312744E0,9.157532208E0,-2.403826952E0,2.186413527E0,-1.717308164E-1
9.165019208E0,-9.831106110E0,-1.489776993E1,2.131417694E0,9.167515208E0,-2.173741102E0,2.452026606E0,-2.579971589E-2
9.175001208E0,-7.380252686E0,-1.297905991E1,1.712438965E0,9.177497208E0,-2.030418158E0,2.356379032E0,2.989740483E-2
9.184984208E0,-4.407135315E0,-1.103131027E1,1.394200745E0,9.187480208E0,-1.973078012E0,2.221670866E0,4.742366821E-2
9.194966208E0,-2.271975403E0,-1.009036697E1,7.334747314E-1,9.197462208E0,-1.960098028E0,1.849907160E0,1.198989004E-1
9.204949208E0,-1.219514008E0,-9.468410339E0,9.744735718E-2,9.207445208E0,-1.989788294E0,9.914487004E-1,2.431875467E-1
9.214931208E0,-6.864724731E-1,-9.003327484E0,-3.064128113E-1,9.217427208E0,-2.019142389E0,3.617024422E-2,2.782380879E-1
9.224914208E0,6.236032104E-1,-8.515192566E0,-2.598596191E-1,9.227410208E0,-2.010688782E0,-4.997491241E-1,2.132372409E-1
9.234896208E0,2.010768585E0,-8.623567200E0,-5.281018066E-1,9.237392208E0,-1.926278591E0,-6.770859361E-1,9.417462349E-2
9.244879208E0,2.585124207E0,-8.671467590E0,-5.953120422E-1,9.247375208E0,-1.764093399E0,-7.148727179E-1,-6.599240750E-2
9.254861208E0,2.820285187E0,-8.586743774E0,-4.047583008E-1,9.257357208E0,-1.652758479E0,-7.250322104E-1,-2.838962972E-1
9.264844208E0,2.959196320E0,-8.684490509E0,-8.059240723E-1,9.267340208E0,-1.611629725E0,-8.294438124E-1,-4.391836226E-1
9.274826208E0,2.638563080E0,-8.788075104E0,-1.245859222E0,9.277322208E0,-1.597551823E0,-9.302663803E-1,-5.360393524E-1
9.284808208E0,2.341580658E0,-8.481213226E0,-1.192570038E0,9.287304208E0,-1.576284051E0,-1.032606602E0,-6.128718257E-1
9.294791208E0,2.121687927E0,-8.108937378E0,-8.804690552E-1,9.297287208E0,-1.534244895E0,-1.207837939E0,-5.739264488E-1
9.304773208E0,1.520687714E0,-8.021818542E0,-4.981640625E-1,9.307269208E0,-1.508545399E0,-1.338351130E0,-5.324943066E-1
9.314756208E0,1.113384705E0,-7.651638336E0,-1.658551025E-1,9.317252208E0,-1.469445229E0,-1.389737606E0,-5.283790231E-1
9.324738208E0,5.682183838E-1,-7.095095673E0,2.517764282E-1,9.327234208E0,-1.346284986E0,-1.411903024E0,-5.370708108E-1
9.334721208E0,-2.121089172E-1,-6.702013092E0,8.080197144E-1,9.337217208E0,-1.141130447E0,-1.401342750E0,-5.490286946E-1
9.344703208E0,-1.147513733E0,-6.278693390E0,1.104253693E0,9.347199208E0,-9.018383026E-1,-1.356908202E0,-5.615713596E-1
9.354686208E0,-1.812431030E0,-5.981710968E0,1.027613068E0,9.357182208E0,-6.691159010E-1,-1.279975772E0,-5.941339731E-1
9.364668208E0,-2.444117432E0,-5.538183289E0,9.029223633E-1,9.367164208E0,-4.320107102E-1,-1.050817966E0,-5.747429729E-1
9.374651208E0,-3.100652161E0,-5.203179932E0,5.501060486E-1,9.377147208E0,-2.316857278E-1,-9.618527889E-1,-5.821325183E-1
9.384633208E0,-3.141068115E0,-4.618196411E0,-3.489244080E-1,9.387129208E0,-4.463515431E-2,-7.296411395E-1,-5.725273490E-1
9.394616208E0,-3.780388641E0,-4.259841614E0,-6.414161682E-1,9.397112208E0,2.134504765E-1,-3.436538577E-1,-5.222904682E-1
9.404598208E0,-3.948938141E0,-3.930077362E0,-7.304809570E-1,9.407094208E0,5.090773106E-1,1.610272750E-2,-4.459368587E-1
9.414581208E0,-3.829636230E0,-3.470083923E0,-1.025966492E0,9.417077208E0,8.187915683E-1,2.410696298E-1,-3.740116060E-1
9.424563208E0,-3.453767853E0,-3.216211853E0,-1.301094360E0,9.427059208E0,1.113505483E0,5.687545538E-1,-2.337833792E-1
9.434546208E0,-3.412603455E0,-3.342249756E0,-1.318458252E0,9.437042208E0,1.359585524E0,7.828908563E-1,-1.167957038E-1
9.444528208E0,-2.756218414E0,-3.446283417E0,-1.361418915E0,9.447024208E0,1.577750087E0,9.453386664E-1,-2.191260457E-2
9.454511208E0,-2.214494934E0,-3.858675842E0,-1.216071167E0,9.457007208E0,1.785061479E0,1.064677835E0,5.905479565E-2
9.464493208E0,-1.747316437E0,-4.366719360E0,-1.260528717E0,9.466989208E0,1.951299787E0,1.098697543E0,1.337471455E-1
9.474476208E0,-1.381926270E0,-4.887935486E0,-1.676962738E0,9.476972208E0,2.053231716E0,1.031372190E0,1.919364482E-1
9.484458208E0,-9.762698364E-1,-5.452411652E0,-2.476001129E0,9.486954208E0,2.083313465E0,8.776577115E-1,2.354857922E-1
9.494440208E0,-5.740562439E-1,-6.174360352E0,-3.528911591E0,9.496936208E0,2.013907671E0,6.567347050E-1,2.860059440E-1
9.504423208E0,-2.920426941E-1,-7.298822021E0,-4.979544983E0,9.506919208E0,1.886430025E0,4.497860372E-1,3.845929801E-1
9.514405208E0,-3.442840576E-2,-9.003327484E0,-6.256838837E0,9.516901208E0,1.718014598E0,3.143954873E-1,5.275222659E-1
9.524388208E0,5.159770203E-1,-1.118189713E1,-7.515421600E0,9.526884208E0,1.375935793E0,3.252190948E-1,6.551334858E-1
9.534370208E0,1.567839661E0,-1.391581192E1,-9.943522339E0,9.536866208E0,7.360287905E-1,5.165569186E-1,7.158194780E-1
9.544353208E0,3.025358734E0,-1.713217346E1,-1.324520645E1,9.546849208E0,-8.430763334E-2,6.482150555E-1,4.227279723E-1
9.554335292E0,4.856650543E0,-1.960967148E1,-1.556283691E1,9.556831292E0,-8.090140820E-1,1.233124062E-1,-3.982488066E-2
9.564318292E0,6.213129730E0,-2.094908615E1,-1.576177322E1,9.566814292E0,-1.183408618E0,-6.946932077E-1,-5.055611134E-1
9.574300292E0,6.404731293E0,-1.981564316E1,-1.279599060E1,9.576796292E0,-1.113970637E0,-1.142017722E0,-9.058848023E-1
9.584283292E0,5.175337830E0,-1.608075989E1,-8.266110535E0,9.586779292E0,-8.156379461E-1,-1.094573140E0,-1.093559027E0
9.594265292E0,3.272644501E0,-1.224902802E1,-5.148992615E0,9.596761292E0,-5.170517564E-1,-8.281665444E-1,-1.106087565E0
9.604248292E0,2.132315826E0,-9.040599976E0,-3.693120117E0,9.606744292E0,-3.133026361E-1,-5.945694447E-1,-9.707199335E-1
9.614230292E0,1.389410706E0,-6.405330048E0,-3.165018311E0,9.616726292E0,-1.777558774E-1,-3.140377700E-1,-7.334856391E-1
9.624213292E0,4.212240601E-1,-4.642445984E0,-2.757116547E0,9.626709292E0,-1.135544199E-2,-4.321532324E-2,-4.640702009E-1
9.634195292E0,-8.753796387E-1,-4.048032074E0,-2.313439178E0,9.636691292E0,2.440885454E-1,1.787379682E-1,-2.111965120E-1
9.644178292E0,-2.353256378E0,-4.602479095E0,-2.007176056E0,9.646674292E0,6.157582402E-1,2.675259113E-1,1.046024449E-2
9.654160292E0,-3.347937927E0,-5.829178162E0,-1.676962738E0,9.656656292E0,1.065690398E0,3.126310110E-1,1.191574708E-1
9.664143292E0,-3.261118469E0,-7.233557739E0,-8.939410400E-1,9.666639292E0,1.490916252E0,5.218985081E-1,1.161968410E-1
9.674125292E0,-2.397414551E0,-9.055269470E0,-1.113684082E-1,9.676621292E0,1.846717477E0,9.086139798E-1,9.677280486E-2
9.684107292E0,-1.737436981E0,-1.191761719E1,1.376537476E0,9.686603292E0,2.191262484E0,1.234991074E0,1.716670245E-1
9.694090292E0,-2.091750183E0,-1.568917419E1,3.640878754E0,9.696586292E0,2.268562317E0,1.206555605E0,3.291601241E-1
9.704072292E0,-3.224594421E0,-1.879566422E1,3.116219788E0,9.706568292E0,1.663735509E0,9.082432389E-1,3.545757532E-1
9.714055292E0,-4.130510559E0,-2.036036041E1,-1.926643524E0,9.716551292E0,2.630264163E-1,2.480100989E-1,1.194590107E-1
9.724037292E0,-3.425925751E0,-1.998553986E1,-8.325387268E0,9.726533292E0,-9.863718748E-1,-1.225285679E-1,-1.847096682E-1
9.734020292E0,-1.863025818E0,-1.583841385E1,-6.148913269E0,9.736516292E0,-1.236258507E0,-2.318601822E-3,-2.747601867E-1
9.744002292E0,-1.818867645E0,-1.145552811E1,-1.457968140E0,9.746498292E0,-9.202635288E-1,3.764585778E-2,-2.542766929E-1
9.753985292E0,-2.154170380E0,-8.404871979E0,-8.167016602E-1,9.756481292E0,-3.762099743E-1,3.884785473E-1,-1.774856895E-1
9.763967292E0,-3.136727142E0,-5.552254028E0,4.707710266E-1,9.766463292E0,2.197178751E-1,1.119533777E0,5.172618851E-2
9.773950292E0,-5.313201141E0,-2.426304474E0,1.655108185E0,9.776446292E0,8.131105900E-1,1.744479418E0,3.192818761E-1
9.783932292E0,-5.904621277E0,-1.104702759E-1,2.418969727E0,9.786428292E0,1.352272868E0,2.088549137E0,6.002829671E-1
9.793915292E0,-5.775439911E0,1.025367737E-1,3.553310852E0,9.796411292E0,1.745535612E0,2.323676348E0,8.725945950E-1
9.803897292E0,-5.590274963E0,-1.054407349E0,4.682412872E0,9.806393292E0,1.821001530E0,2.431131840E0,1.148078918E0
9.813880292E0,-5.461392975E0,-3.339555359E0,4.632267151E0,9.816376292E0,1.641696930E0,2.180743217E0,1.447127342E0
9.823862292E0,-4.778962097E0,-6.349047089E0,5.128934326E0,9.826358292E0,1.370647907E0,1.622010708E0,1.693247318E0
9.833845292E0,-3.309767303E0,-1.017254608E1,6.334227905E0,9.836341292E0,1.079155922E0,7.662805915E-1,1.841873407E0
9.843827292E0,-1.162632294E0,-1.384620667E1,6.889273682E0,9.846323292E0,9.360217452E-1,-1.759103537E-1,1.825293422E0
9.853810292E0,1.867067413E0,-1.645258667E1,6.842570801E0,9.856306292E0,1.088420749E0,-8.349211216E-1,1.592368245E0
9.863792292E0,5.217849426E0,-1.777104492E1,5.696853333E0,9.866288292E0,1.617929101E0,-1.045380116E0,1.200397253E0
9.873774292E0,8.277935944E0,-1.875060791E1,2.588267670E0,9.876270292E0,2.039467096E0,-6.433625817E-1,5.222613811E-1
9.883757292E0,1.126587250E1,-1.802521637E1,-2.472258911E0,9.886253292E0,1.860558987E0,1.142425165E-1,-3.054139614E-1
9.893739292E0,1.134266281E1,-1.437685318E1,-6.528224487E0,9.896235292E0,1.377959609E0,5.757301450E-1,-8.006579280E-1
9.903722292E0,7.486232300E0,-1.146226410E1,-6.708749084E0,9.906218292E0,9.902291298E-1,7.862570286E-1,-1.020403266E0
9.913704292E0,3.222049713E0,-1.033136581E1,-4.586163025E0,9.916200292E0,8.674416542E-1,9.421306849E-1,-1.110763550E0
9.923687292E0,4.221221924E-2,-9.397906952E0,-1.931583252E0,9.926183292E0,9.395800233E-1,1.073229909E0,-1.129117012E0
9.933669292E0,-1.986818390E0,-8.212072906E0,-1.630110168E-1,9.936165292E0,1.072641492E0,1.133830070E0,-1.045151353E0
9.943652292E0,-3.521127777E0,-7.330556030E0,5.460644531E-1,9.946148292E0,1.192270756E0,1.015905023E0,-8.251955509E-1
9.953634292E0,-4.864883423E0,-7.086114349E0,8.020321655E-1,9.956130292E0,1.226152778E0,7.621460557E-1,-5.279803276E-1
9.963617292E0,-5.786666565E0,-6.962471466E0,7.746391296E-1,9.966113292E0,1.141588330E0,4.281390905E-1,-2.328248024E-1
9.973599292E0,-5.805826721E0,-6.943311310E0,5.926176453E-1,9.976095292E0,9.661469460E-1,9.721701592E-2,3.312584013E-2
9.983582292E0,-5.107828217E0,-7.074588318E0,4.870870972E-1,9.986078292E0,8.120793700E-1,-6.815908477E-3,2.722958326E-1
9.993564292E0,-3.951782227E0,-7.462581482E0,8.584648132E-1,9.996060292E0,7.417898774E-1,1.225775108E-1,4.449566603E-1
1.000354729E1,-2.666405182E0,-7.951015778E0,1.207838287E0,1.000604329E1,7.156783938E-1,4.257264733E-1,5.451735258E-1
1.001352929E1,-1.538949738E0,-8.414601746E0,1.100810852E0,1.001602529E1,7.300314903E-1,7.675828338E-1,5.608196855E-1
1.002351229E1,-3.585044861E-1,-8.858728180E0,9.592053223E-1,1.002600829E1,7.353721857E-1,9.962279797E-1,5.540472269E-1
1.003349429E1,5.013075256E-1,-9.241482239E0,7.843688965E-1,1.003599029E1,7.620694041E-1,1.066906810E0,5.081319213E-1
1.004347729E1,1.211580505E0,-9.532327423E0,7.863148499E-1,1.004597329E1,7.813506722E-1,1.037386417E0,4.470522702E-1
1.005345929E1,1.676962738E0,-9.803862762E0,6.860234070E-1,1.005595529E1,7.451126575E-1,8.905354738E-1,4.151098132E-1
1.006344229E1,1.891017609E0,-9.642797699E0,4.652325439E-1,1.006593829E1,6.766435504E-1,7.039077878E-1,4.294243157E-1
1.007342429E1,1.882635040E0,-9.370813293E0,3.350033569E-1,1.007592029E1,6.451859474E-1,5.833564401E-1,4.598231316E-1
1.008340629E1,1.795067139E0,-9.054521027E0,4.924758911E-1,1.008590229E1,6.907870173E-1,5.062811375E-1,4.372216761E-1
1.009338929E1,1.610950012E0,-8.862021332E0,7.316784668E-1,1.009588529E1,8.388802409E-1,4.489521384E-1,4.210816920E-1
