"time_acc","acc_x","acc_y","acc_z","time_gyro","gyro_x","gyro_y","gyro_z"
1.531566668E-2,1.001417542E-1,-8.846753082E0,7.997868347E-1,2.405066672E-2,1.585164666E0,3.483102620E-1,3.988192677E-1
2.529766667E-2,6.017486572E-2,-9.445208588E0,2.978805542E-2,3.403266671E-2,1.519006014E0,4.270950854E-1,4.684365392E-1
3.527966677E-2,2.845582581E-1,-9.936187592E0,-9.627978516E-1,4.401566670E-2,1.371658921E0,5.520306230E-1,5.316812992E-1
4.526266677E-2,7.223977661E-1,-1.014126114E1,-1.775008850E0,5.399766669E-2,1.150083423E0,6.531423330E-1,5.806028843E-1
5.524466676E-2,1.216969299E0,-1.030786469E1,-2.227218475E0,6.397966668E-2,8.937474489E-1,6.689718962E-1,5.913367271E-1
6.522666675E-2,1.553768921E0,-1.069555847E1,-2.169738007E0,7.396166667E-2,6.615754962E-1,5.312047005E-1,5.218435526E-1
7.520866673E-2,1.698368225E0,-1.141645935E1,-1.731299744E0,8.394466667E-2,4.902128279E-1,3.262837529E-1,4.278267920E-1
8.519166673E-2,1.759441223E0,-1.204664886E1,-1.228046265E0,9.392666677E-2,3.655160367E-1,1.303531379E-1,3.061065078E-1
9.517366672E-2,1.766925659E0,-1.219424194E1,-7.602690125E-1,1.039086668E-1,2.593648434E-1,1.120596156E-1,2.221482396E-1
1.051556667E-1,1.731599121E0,-1.187031555E1,-4.023632813E-1,1.138906667E-1,1.816295385E-1,2.432072759E-1,1.545351744E-1
1.151376667E-1,1.526974640E0,-1.169547913E1,-2.074685669E-1,1.238726667E-1,1.082639843E-1,4.159582853E-1,4.324540123E-2
1.251206667E-1,1.538800049E0,-1.143157791E1,-2.097138977E-1,1.338556667E-1,5.461736023E-2,5.557430387E-1,-8.608584106E-2
1.351026667E-1,1.399739227E0,-1.138936569E1,-4.189787292E-1,1.438376667E-1,4.331543297E-2,6.867780089E-1,-1.836842895E-1
1.450846667E-1,1.079704742E0,-1.120764359E1,-5.894741821E-1,1.538196667E-1,-6.684428081E-3,6.429432034E-1,-2.341749221E-1
1.550666668E-1,6.394702148E-1,-1.123129440E1,-9.496252441E-1,1.638026667E-1,-1.315374076E-1,5.417289734E-1,-2.455607355E-1
1.650496668E-1,2.653981018E-1,-1.151255951E1,-1.306183777E0,1.737846667E-1,-3.690422177E-1,3.473238051E-1,-2.266618311E-1
1.750316668E-1,-6.795867920E-2,-1.244661713E1,-1.781146088E0,1.837666667E-1,-7.590965033E-1,1.999793798E-1,-1.801361442E-1
1.850136667E-1,-3.233276367E-1,-1.325703186E1,-1.847907257E0,1.937486667E-1,-1.305214286E0,6.693369895E-2,-1.201017201E-1
1.949956667E-1,-3.755690002E-1,-1.415261948E1,-1.895508270E0,2.037316667E-1,-1.783121228E0,1.811957685E-3,-1.743867844E-1
2.049786667E-1,-2.478845215E-1,-1.457878326E1,-1.187330933E0,2.137136668E-1,-2.024629354E0,-1.202926338E-1,-3.681890965E-1
2.149606667E-1,-6.376739502E-2,-1.463806000E1,-1.856140137E-2,2.236956668E-1,-2.143296003E0,-3.371197581E-1,-6.145709157E-1
2.249426667E-1,2.749781799E-1,-1.431802551E1,6.503974915E-1,2.336776668E-1,-2.359817743E0,-5.726239085E-1,-7.561152577E-1
2.349246667E-1,8.029302979E-1,-1.341689941E1,4.408332825E-1,2.436606667E-1,-2.811772585E0,-7.501587272E-1,-7.375695705E-1
2.449076667E-1,7.673043823E-1,-1.224573486E1,-5.084925842E-1,2.536426667E-1,-3.379327536E0,-7.365179658E-1,-6.546831131E-1
2.548896667E-1,2.639012146E-1,-1.123309067E1,-1.554367676E0,2.636246667E-1,-3.868802547E0,-7.607889771E-1,-5.945217609E-1
2.648716667E-1,-6.159690857E-1,-1.052566177E1,-1.931134186E0,2.736066667E-1,-4.041781902E0,-9.981578588E-1,-5.632638931E-1
2.748536667E-1,-1.721569977E0,-1.072609497E1,-1.403481445E0,2.835896667E-1,-3.917800903E0,-1.153448939E0,-4.787849486E-1
2.848366668E-1,-2.960543518E0,-1.197794174E1,-2.185455322E-1,2.935716667E-1,-3.672400951E0,-9.680618048E-1,-2.805019915E-1
2.948186668E-1,-4.403243408E0,-1.390653122E1,3.210823059E-1,3.035536667E-1,-3.377474546E0,-3.791404366E-1,-1.430535614E-1
3.048006668E-1,-5.291047211E0,-1.613853973E1,7.866142273E-1,3.135356667E-1,-3.064550638E0,4.894681573E-1,-1.376742423E-1
3.147826667E-1,-5.490582275E0,-1.778511566E1,1.562301178E0,3.235186667E-1,-2.777667761E0,1.335296035E0,-1.634919792E-1
3.247656667E-1,-5.260660400E0,-1.844509323E1,2.582280121E0,3.335006668E-1,-2.565304995E0,1.772659898E0,-1.329058707E-1
3.347476667E-1,-4.650080109E0,-1.735640717E1,2.951412506E0,3.434826668E-1,-2.418111801E0,1.799148440E0,-7.588785887E-2
3.447296667E-1,-3.071762238E0,-1.470033051E1,2.984643402E0,3.534646668E-1,-2.278970480E0,1.627641201E0,-2.853188198E-4
3.547116667E-1,-1.706152039E0,-1.239257950E1,3.070415039E0,3.634476668E-1,-2.115778446E0,1.420309901E0,7.069431245E-2
3.646946667E-1,-1.012494507E0,-1.091125992E1,3.062032471E0,3.734296667E-1,-1.963953495E0,1.129126787E0,1.375956535E-1
3.746766667E-1,-5.176235962E-1,-1.011431717E1,2.534529419E0,3.834116667E-1,-1.867644191E0,7.298584580E-1,1.845125556E-1
3.846586667E-1,2.086660767E-1,-9.922565918E0,1.241817627E0,3.933936667E-1,-1.815637827E0,2.947817743E-1,1.815322936E-1
3.946406667E-1,1.080153809E0,-9.979896698E0,1.239422607E-1,4.033766667E-1,-1.880563021E0,-2.894433141E-1,1.391757876E-1
4.046236667E-1,1.276844788E0,-9.986782379E0,-1.324595490E0,4.133586667E-1,-2.018540382E0,-8.233179450E-1,7.579531521E-2
4.146056668E-1,1.273401947E0,-9.737700348E0,-2.491568756E0,4.233406667E-1,-2.145816326E0,-1.214581847E0,3.409394622E-2
4.245876668E-1,1.277443542E0,-9.468410339E0,-2.798730011E0,4.333226667E-1,-2.077666998E0,-1.357136846E0,-1.213907637E-2
4.345696667E-1,1.172212372E0,-9.069340210E0,-1.735790405E0,4.433056667E-1,-1.910726666E0,-1.122859120E0,-1.381766349E-1
4.445526667E-1,1.449884949E0,-8.365354156E0,-3.623963928E-1,4.532876667E-1,-1.771607518E0,-9.036244154E-1,-1.733753979E-1
4.545346667E-1,1.147962799E0,-7.806117096E0,-1.266366577E-1,4.632696668E-1,-1.678789735E0,-8.764412999E-1,-1.281216294E-1
4.645166667E-1,-3.218307495E-2,-7.390132141E0,-1.845661926E-1,4.732516668E-1,-1.623794436E0,-1.048521757E0,-1.040761471E-1
4.744986667E-1,-6.511459351E-1,-6.723867645E0,1.661544800E-2,4.832346668E-1,-1.564757466E0,-1.368588090E0,-9.500142187E-2
4.844816667E-1,-7.867639160E-1,-6.101162567E0,3.381468201E-1,4.932166667E-1,-1.483902574E0,-1.656283379E0,-8.443100005E-2
4.944636667E-1,-1.022074585E0,-5.652246094E0,8.223898315E-1,5.031986667E-1,-1.372300982E0,-1.748158932E0,-9.512865543E-2
5.044456667E-1,-1.180744629E0,-5.048551483E0,1.172960815E0,5.131806667E-1,-1.211842537E0,-1.724701762E0,-1.555465758E-1
5.144276667E-1,-1.097218323E0,-4.215384064E0,1.388961639E0,5.231626667E-1,-9.888419509E-1,-1.605285645E0,-1.917682290E-1
5.244106667E-1,-1.277293854E0,-3.496279449E0,1.458417206E0,5.331456667E-1,-7.286618352E-1,-1.421531320E0,-2.142891139E-1
5.343926668E-1,-1.549877014E0,-3.348087616E0,1.445693665E0,5.431276667E-1,-4.407658577E-1,-1.069412947E0,-1.840696931E-1
5.443746668E-1,-1.673519897E0,-3.145708466E0,1.134041748E0,5.531096667E-1,-1.384761631E-1,-6.098996401E-1,-1.560013443E-1
5.543566667E-1,-1.944755859E0,-2.973416748E0,7.933502197E-1,5.630916667E-1,1.663559079E-1,-1.907375157E-1,-1.276394874E-1
5.643396667E-1,-1.899699554E0,-2.959795074E0,3.076103210E-1,5.730746667E-1,4.860115945E-1,1.123049259E-1,-8.968681097E-2
5.743216667E-1,-1.958377533E0,-3.056943054E0,-1.267863464E-1,5.830566668E-1,8.034169674E-1,3.045883477E-1,-4.924723879E-2
5.843036667E-1,-2.027833099E0,-3.263663177E0,-3.785627747E-1,5.930386668E-1,1.119690061E0,3.729855120E-1,-8.222401142E-3
5.942856667E-1,-2.097588043E0,-3.513493652E0,-5.270539856E-1,6.030206667E-1,1.422979832E0,3.273783624E-1,-3.741099965E-3
6.042686667E-1,-2.036515045E0,-3.641327820E0,-7.499404907E-1,6.130036667E-1,1.725396991E0,2.390357256E-1,-3.068517521E-2
6.142506667E-1,-1.915416870E0,-3.702550507E0,-9.830058289E-1,6.229856667E-1,2.022403955E0,8.105168492E-2,-5.882413313E-2
6.242326667E-1,-1.841470642E0,-3.877237244E0,-1.375789032E0,6.329676667E-1,2.298492193E0,-1.762347221E-1,-6.837338209E-2
6.342146667E-1,-1.786385193E0,-4.238735504E0,-2.110161896E0,6.429506667E-1,2.517340899E0,-4.740469456E-1,-4.045279324E-2
6.441976667E-1,-1.827399902E0,-4.991669769E0,-3.180585938E0,6.529326667E-1,2.596322298E0,-6.926054358E-1,2.093954384E-2
6.541796668E-1,-1.888023834E0,-6.317911835E0,-4.756658478E0,6.629146667E-1,2.546038151E0,-6.856032014E-1,1.128268540E-1
6.641616668E-1,-1.784439240E0,-8.271050262E0,-6.117029572E0,6.728966667E-1,2.296762228E0,-4.758163691E-1,2.341369241E-1
6.741436668E-1,-1.481169891E0,-1.081680634E1,-6.606811066E0,6.828796667E-1,1.504599690E0,3.234910592E-2,3.925007284E-1
6.841266667E-1,-8.593629456E-1,-1.414992508E1,-8.734187164E0,6.928616667E-1,1.712449193E-1,8.953403831E-1,4.502423704E-1
6.941086667E-1,3.303630066E-1,-1.859582977E1,-1.322425003E1,7.028436668E-1,-8.786634803E-1,1.537874341E0,1.872240752E-1
7.040906667E-1,2.217339020E0,-2.345472565E1,-1.572330322E1,7.128256668E-1,-1.203107476E0,1.440564036E0,-4.187974632E-1
7.140726667E-1,3.582350464E0,-2.568029755E1,-1.479059280E1,7.228086668E-1,-1.155033946E0,5.845201612E-1,-9.354366064E-1
7.240556667E-1,3.038830719E0,-2.357941635E1,-1.350910767E1,7.327906667E-1,-9.909862280E-1,-5.560134053E-1,-1.124121308E0
7.340376667E-1,3.224295044E-1,-1.795082108E1,-1.215966385E1,7.427726667E-1,-7.931221724E-1,-1.390240431E0,-1.141377449E0
7.440196667E-1,-1.452130280E0,-1.139026382E1,-9.902807007E0,7.527546667E-1,-5.857099891E-1,-1.840716243E0,-9.421061873E-1
7.540016667E-1,-2.257156219E0,-6.675368500E0,-7.484585724E0,7.627376667E-1,-3.372700810E-1,-1.669808388E0,-6.333566308E-1
7.639846667E-1,-2.781515808E0,-3.111280060E0,-5.212760010E0,7.727196667E-1,-1.374793611E-2,-9.273989797E-1,-2.880494595E-1
7.739666668E-1,-2.699037323E0,-3.923341370E-1,-2.625689850E0,7.827016667E-1,3.232298195E-1,5.197342485E-2,8.097279072E-2
7.839486668E-1,-2.696791992E0,3.971241760E-1,-8.650511169E-1,7.926836667E-1,6.900188923E-1,9.686864614E-1,3.849668205E-1
7.939306668E-1,-2.891537018E0,-1.844314728E0,1.788780212E-1,8.026666667E-1,1.082575560E0,1.660637259E0,6.048429608E-1
8.039136668E-1,-2.433788910E0,-5.789510651E0,1.413360901E0,8.126486667E-1,1.522414565E0,2.207938433E0,6.210831404E-1
8.138956667E-1,-1.072369995E0,-1.019275406E1,2.887046356E0,8.226306667E-1,1.993331671E0,2.678691626E0,4.303446412E-1
8.238776667E-1,5.656736755E-1,-1.464764008E1,5.553900604E0,8.326126668E-1,2.217090368E0,2.755639315E0,2.132911384E-1
8.338596667E-1,1.067130890E0,-1.868968460E1,7.504494324E0,8.425956668E-1,1.990488172E0,2.321442366E0,-9.669362754E-2
8.438426667E-1,7.924520874E-1,-2.124217667E1,5.919290771E0,8.525776668E-1,1.007702708E0,1.663211465E0,-5.525146723E-1
8.538246667E-1,1.147064667E0,-2.162822388E1,2.811154175E-1,8.625596667E-1,-3.549915552E-1,1.142293453E0,-8.384380341E-1
8.638066667E-1,1.576222229E0,-1.908141998E1,-6.830895081E0,8.725416667E-1,-1.081200242E0,6.940125227E-1,-7.918745875E-1
8.737886667E-1,-1.146615601E-1,-1.448328186E1,-6.751560059E0,8.825246667E-1,-9.476030469E-1,1.082366854E-1,-6.606297493E-1
8.837716667E-1,-2.165247345E0,-1.058733353E1,-4.009562073E0,8.925066667E-1,-3.290844858E-1,5.833895877E-3,-5.851946473E-1
8.937536667E-1,-3.089874573E0,-7.301965485E0,-1.356479187E0,9.024886667E-1,5.309197307E-1,6.897419095E-1,-4.883424044E-1
9.037356668E-1,-3.854185181E0,-3.972588959E0,2.075583801E0,9.124706667E-1,1.301421642E0,1.575351357E0,-2.601220608E-1
9.137176668E-1,-4.745132446E0,-1.484013977E0,4.357288971E0,9.224536667E-1,1.758446217E0,2.254625082E0,1.113385931E-1
9.237006668E-1,-5.436095581E0,-8.478369141E-1,4.406386871E0,9.324356667E-1,1.795934916E0,2.684492588E0,5.451536775E-1
9.336826667E-1,-5.753285980E0,-2.016157379E0,3.720064087E0,9.424177917E-1,1.543463469E0,2.810417175E0,1.024316072E0
9.436647918E-1,-5.935457153E0,-3.779939575E0,2.956801300E0,9.523997917E-1,1.234901667E0,2.452027321E0,1.457331896E0
9.536467917E-1,-5.816753998E0,-5.728886719E0,3.149151306E0,9.623827917E-1,9.744693637E-1,1.696116328E0,1.774454832E0
9.636297917E-1,-4.680317230E0,-8.172854462E0,4.102219391E0,9.723647917E-1,8.803226948E-1,6.253426671E-1,1.949481249E0
9.736117917E-1,-2.979254608E0,-1.147962799E1,4.862937469E0,9.823467918E-1,1.150702119E0,-6.083241105E-1,1.945240378E0
9.835937917E-1,-4.222718811E-1,-1.407523041E1,5.283263397E0,9.923287918E-1,1.714386821E0,-1.714990616E0,1.697735310E0
9.935767917E-1,2.910098419E0,-1.613195343E1,4.994214478E0,1.002311792E0,2.253209829E0,-2.240127087E0,1.180105686E0
1.003558792E0,6.457721100E0,-1.708337494E1,3.125201111E0,1.012293792E0,2.480626822E0,-1.978105545E0,4.889445007E-1
1.013540792E0,9.328900452E0,-1.687830139E1,-1.077758789E-1,1.022275792E0,2.125292778E0,-1.029923558E0,-1.431367993E-1
1.023522792E0,1.049647247E1,-1.508488083E1,-4.048032074E0,1.032257792E0,1.508267403E0,4.930331558E-2,-5.094141364E-1
1.033504792E0,8.332422638E0,-1.200159256E1,-6.333479462E0,1.042240792E0,1.082789898E0,7.804070711E-1,-7.113701701E-1
1.043487792E0,5.454806671E0,-1.000115250E1,-5.448968811E0,1.052222792E0,9.379134178E-1,9.776365161E-1,-7.866843343E-1
1.053469792E0,2.740201721E0,-8.961414642E0,-3.550017700E0,1.062204792E0,9.986419678E-1,7.146285772E-1,-7.741720080E-1
1.063451792E0,2.706372070E-1,-8.377029877E0,-1.630409546E0,1.072186792E0,1.160553932E0,2.514047623E-1,-6.893083453E-1
1.073434792E0,-1.551373901E0,-7.743247833E0,4.445755005E-2,1.082169792E0,1.276842237E0,-1.046143323E-1,-5.395212173E-1
1.083416792E0,-2.938239899E0,-7.280709686E0,1.052311707E0,1.092151792E0,1.301119685E0,-3.308280110E-1,-3.686814308E-1
1.093398792E0,-3.760030975E0,-6.949747925E0,1.184636536E0,1.102133792E0,1.251048088E0,-3.519375622E-1,-1.672577560E-1
1.103380792E0,-4.201762390E0,-6.834936676E0,1.187181244E0,1.112115792E0,1.161754966E0,-1.448736191E-1,6.017044559E-2
1.113363792E0,-4.507875824E0,-6.823111267E0,9.990225220E-1,1.122098792E0,1.059016347E0,1.622314602E-1,2.525848746E-1
1.123345792E0,-3.954776001E0,-6.799460449E0,5.965095520E-1,1.132080792E0,9.204776883E-1,5.072296262E-1,4.066794217E-1
1.133327792E0,-2.820883942E0,-6.846313019E0,3.091072083E-1,1.142062792E0,7.892070413E-1,8.019611239E-1,5.017782450E-1
1.143309792E0,-1.662742310E0,-7.152426453E0,2.275268555E-1,1.152044792E0,7.470327020E-1,9.689703584E-1,5.572063327E-1
1.153292792E0,-6.879693604E-1,-7.540120239E0,7.788304138E-1,1.162027792E0,7.771349549E-1,8.859907985E-1,5.762143731E-1
1.163274792E0,7.933502197E-3,-8.119864655E0,1.535806274E0,1.172009792E0,8.638281226E-1,5.700368285E-1,5.502415895E-1
1.173256792E0,5.123844910E-1,-8.612639923E0,1.890119476E0,1.181991792E0,1.046390533E0,2.400373518E-1,5.159187317E-1
1.183238792E0,7.592211914E-1,-8.884923706E0,2.130669250E0,1.191973792E0,1.272095680E0,2.822308242E-2,4.749948382E-1
1.193221792E0,7.705975342E-1,-9.144483948E0,1.974543915E0,1.201956792E0,1.500472426E0,-3.105115891E-2,4.440081418E-1
1.203203792E0,4.983137512E-1,-9.183103638E0,1.371448059E0,1.211938792E0,1.676788330E0,3.846292570E-2,4.232670069E-1
1.213185792E0,9.804611206E-2,-8.981023865E0,7.494914246E-1,1.221920792E0,1.766596794E0,1.783278883E-1,4.345153868E-1
1.223167792E0,-3.146456909E-1,-8.907377014E0,1.739382935E-1,1.231903792E0,1.775176883E0,3.227596283E-1,4.760977924E-1
1.233150792E0,-6.316864014E-1,-9.102571106E0,-2.423460388E-1,1.241885792E0,1.739411950E0,4.508419633E-1,5.263532400E-1
1.243132792E0,-7.168592834E-1,-9.467661896E0,-4.451742554E-1,1.251867792E0,1.699790597E0,5.730792284E-1,5.862786770E-1
1.253114792E0,-6.122268677E-1,-9.857151947E0,-4.840933228E-1,1.261849792E0,1.640943050E0,6.640682220E-1,6.460096240E-1
1.263096792E0,-3.492237854E-1,-1.014440460E1,-5.640270996E-1,1.271831792E0,1.526806355E0,7.088021636E-1,7.049376965E-1
1.273079792E0,9.415420532E-2,-1.028930328E1,-9.012757874E-1,1.281814792E0,1.334948540E0,6.517548561E-1,7.097425461E-1
1.283061792E0,6.559359741E-1,-1.045725403E1,-1.416953430E0,1.291796792E0,1.100807071E0,4.520854056E-1,6.608088017E-1
1.293043792E0,1.230441284E0,-1.088596252E1,-1.888622589E0,1.301778792E0,8.861808181E-1,1.199620664E-1,5.448585153E-1
1.303025792E0,1.610950012E0,-1.186253174E1,-2.233505402E0,1.311761792E0,7.188733220E-1,-1.572762281E-1,3.975813687E-1
1.313008792E0,2.009720764E0,-1.255514145E1,-2.242486725E0,1.321743792E0,5.338760018E-1,-1.850577891E-1,2.844534814E-1
1.322990792E0,2.263592834E0,-1.282757492E1,-2.325414276E0,1.331725792E0,2.742017210E-1,5.505120382E-2,2.432714999E-1
1.332972792E0,2.283651123E0,-1.242176880E1,-2.395767975E0,1.341707792E0,-2.867320925E-2,4.061841965E-1,2.085430771E-1
1.342954792E0,2.678380280E0,-1.179681839E1,-2.268233185E0,1.351690792E0,-2.660762370E-1,6.582423449E-1,1.476883739E-1
1.352937792E0,3.038231964E0,-1.149669250E1,-1.568588104E0,1.361672792E0,-3.513487875E-1,7.198321819E-1,2.524633706E-2
1.362919792E0,3.304228821E0,-1.134116592E1,-7.355703735E-1,1.371654792E0,-3.055857420E-1,6.303976178E-1,-1.159886867E-1
1.372901792E0,3.065625000E0,-1.119866226E1,3.547622681E-2,1.381636792E0,-2.574200630E-1,3.602247238E-1,-2.134534568E-1
1.382883792E0,2.580483856E0,-1.121288269E1,1.652563477E-1,1.391619792E0,-3.424628079E-1,4.442284629E-2,-2.535538375E-1
1.392866792E0,2.029928741E0,-1.148112488E1,-2.384541321E-1,1.401601792E0,-6.491740346E-1,-3.659220934E-1,-2.259248793E-1
1.402848792E0,1.411564636E0,-1.266561172E1,-1.216669922E0,1.411583792E0,-1.117589235E0,-6.375653148E-1,-2.274551392E-1
1.412830792E0,9.002279663E-1,-1.383198624E1,-1.572030945E0,1.421565792E0,-1.543637156E0,-7.100788951E-1,-3.394013941E-1
1.422812792E0,7.029382324E-1,-1.466275864E1,-1.162632294E0,1.431548792E0,-1.824043393E0,-6.564338207E-1,-5.276411772E-1
1.432795792E0,6.051914978E-1,-1.496542923E1,4.445755005E-2,1.441530792E0,-1.994802117E0,-6.387096643E-1,-7.096772790E-1
1.442777792E0,3.664379883E-1,-1.520358398E1,1.140178986E0,1.451512792E0,-2.150412321E0,-7.653568387E-1,-8.155927062E-1
1.452759792E0,2.095642090E-1,-1.498069748E1,1.592687988E0,1.461494792E0,-2.450514078E0,-8.949542642E-1,-8.364856839E-1
1.462741792E0,4.116439819E-2,-1.424123520E1,1.335223389E0,1.471477792E0,-2.873647690E0,-9.761968851E-1,-8.027586937E-1
1.472724792E0,-6.271957397E-2,-1.337603439E1,5.848338318E-1,1.481459792E0,-3.242644310E0,-1.060320377E0,-7.276519537E-1
1.482706792E0,-5.953120422E-1,-1.265992355E1,5.728587341E-1,1.491441792E0,-3.448825121E0,-1.161397696E0,-6.068011522E-1
1.492688792E0,-1.635498962E0,-1.220501953E1,1.252295837E0,1.501423792E0,-3.501356840E0,-1.164492249E0,-4.707005918E-1
1.502670792E0,-2.857557678E0,-1.249077530E1,1.675166473E0,1.511406792E0,-3.384747505E0,-1.042362928E0,-3.502556980E-1
1.512653792E0,-4.230352936E0,-1.334504883E1,1.796264648E0,1.521388792E0,-3.227803707E0,-7.568973303E-1,-2.615183890E-1
1.522635792E0,-5.447172546E0,-1.435215454E1,1.547332306E0,1.531370792E0,-3.107429981E0,-3.291036189E-1,-1.853730977E-1
1.532617792E0,-6.613846436E0,-1.561432983E1,7.535330200E-1,1.541352792E0,-2.969874620E0,2.214777768E-1,-1.511746496E-1
1.542600792E0,-7.329059143E0,-1.638253235E1,6.002517700E-1,1.551335792E0,-2.786491394E0,7.721694112E-1,-8.806207776E-2
1.552582792E0,-6.847809906E0,-1.566911591E1,1.307680664E0,1.561317792E0,-2.592840672E0,1.202930093E0,1.467069145E-2
1.562564792E0,-5.470523987E0,-1.373064697E1,2.013013916E0,1.571299792E0,-2.432921410E0,1.379603148E0,6.321626902E-2
1.572546792E0,-3.468287659E0,-1.183139648E1,2.359842682E0,1.581281792E0,-2.352499247E0,1.344485402E0,8.504194021E-2
1.582529792E0,-1.777104492E0,-1.042207718E1,2.415975952E0,1.591264792E0,-2.307575703E0,1.127007723E0,1.309372038E-1
1.592511792E0,-8.418493652E-1,-9.729317780E0,2.208657074E0,1.601246792E0,-2.214453220E0,8.498947620E-1,1.317191124E-1
1.602493792E0,3.128494263E-2,-9.539512482E0,2.035616913E0,1.611228792E0,-2.145728350E0,4.636645615E-1,7.986286283E-2
1.612475792E0,7.138655090E-1,-9.421258392E0,1.572480011E0,1.621210792E0,-2.215273619E0,-2.195768803E-1,4.834488407E-2
1.622458792E0,8.366102600E-1,-9.714348907E0,1.047821045E-3,1.631193792E0,-2.325489759E0,-9.242535830E-1,-1.865504682E-2
1.632440792E0,8.593629456E-1,-9.780211945E0,-1.128503265E0,1.641175792E0,-2.303033113E0,-1.521771789E0,-1.251798868E-1
1.642422792E0,1.389261017E0,-9.394015045E0,-8.912466431E-1,1.651157792E0,-2.130964518E0,-1.555821180E0,-3.139351606E-1
1.652404792E0,2.174078979E0,-9.090446320E0,2.589614868E-1,1.661139792E0,-1.989929199E0,-1.263522387E0,-5.106793642E-1
1.662387792E0,2.677332458E0,-8.945697327E0,3.038681030E-1,1.671122792E0,-1.878038883E0,-1.022034764E0,-6.440829039E-1
1.672369792E0,2.449955292E0,-8.606203308E0,-2.586621094E-1,1.681104792E0,-1.789829731E0,-1.010852933E0,-6.826787591E-1
1.682351792E0,1.642534332E0,-8.220156097E0,-6.795867920E-2,1.691086792E0,-1.753656507E0,-1.250785589E0,-7.313853502E-1
1.692333792E0,1.084195404E0,-7.840545502E0,1.167572021E-2,1.701068792E0,-1.686549306E0,-1.517916918E0,-8.210723400E-1
1.702316792E0,9.021739197E-1,-7.095993805E0,5.316943359E-1,1.711051792E0,-1.536494732E0,-1.678650022E0,-8.118066192E-1
1.712298792E0,3.141966248E-1,-6.807843018E0,1.347348175E0,1.721033792E0,-1.364942431E0,-1.817044139E0,-8.122311234E-1
1.722280792E0,-7.679031372E-2,-6.396049347E0,1.666783905E0,1.731015792E0,-1.184983134E0,-1.924283624E0,-8.072813153E-1
1.732262792E0,-2.477348328E-1,-5.719606018E0,1.671723633E0,1.740997792E0,-1.001769662E0,-2.011653662E0,-8.175861239E-1
1.742245792E0,-6.370751953E-1,-5.104235687E0,1.619182892E0,1.750980792E0,-7.966508269E-1,-2.001220703E0,-7.977957129E-1
1.752227792E0,-1.062340851E0,-4.507127380E0,1.487456818E0,1.760962792E0,-5.537348390E-1,-1.957164049E0,-7.961230278E-1
1.762209792E0,-1.396895142E0,-4.176015930E0,1.373394012E0,1.770944792E0,-2.679696679E-1,-1.743571281E0,-7.439317107E-1
1.772191792E0,-1.674867096E0,-3.711831207E0,1.193468170E0,1.780926792E0,3.436435759E-2,-1.432715654E0,-6.888074875E-1
1.782174792E0,-2.158810730E0,-3.539539490E0,1.035995636E0,1.790909792E0,3.360764086E-1,-1.108023763E0,-6.381372213E-1
1.792156792E0,-2.338287506E0,-3.353027344E0,6.081852722E-1,1.800891792E0,6.455548406E-1,-8.037319183E-1,-6.112139821E-1
1.802138792E0,-2.498005371E0,-3.124153290E0,2.619552612E-1,1.810873792E0,9.640250206E-1,-4.941474497E-1,-5.792182684E-1
1.812120792E0,-2.601889343E0,-2.989134064E0,1.535806274E-1,1.820855792E0,1.289952517E0,-2.317759842E-1,-5.414271951E-1
1.822103792E0,-2.677332458E0,-2.833757172E0,1.083746338E-1,1.830838792E0,1.622494102E0,-4.997371510E-2,-4.711887836E-1
1.832085792E0,-2.706821136E0,-2.721340942E0,-6.526428223E-2,1.840820792E0,1.933033586E0,3.601602465E-2,-3.857340515E-1
1.842067792E0,-2.787952423E0,-2.808310089E0,-4.875361633E-1,1.850802792E0,2.201885223E0,1.196473837E-2,-2.851030529E-1
1.852049792E0,-2.852019196E0,-3.179987183E0,-1.110989685E0,1.860784792E0,2.409016371E0,-3.809336945E-2,-1.864310503E-1
1.862032792E0,-2.860701141E0,-3.938160553E0,-1.927242279E0,1.870767792E0,2.572084904E0,-1.276791692E-1,-7.180515677E-2
1.872014792E0,-2.843486938E0,-5.156776428E0,-2.654879150E0,1.880749792E0,2.611348629E0,-1.830105931E-1,7.134028524E-2
1.881996792E0,-2.978206787E0,-6.988666992E0,-3.471730499E0,1.890731792E0,2.389866590E0,-1.996090263E-1,2.275641859E-1
1.891978792E0,-2.893183594E0,-9.536369019E0,-5.150639191E0,1.900714792E0,1.873388767E0,5.331458151E-2,3.747179210E-1
1.901961792E0,-2.299817505E0,-1.293864395E1,-7.226073303E0,1.910696792E0,9.659955502E-1,5.206987858E-1,4.794125259E-1
1.911943792E0,-1.317410431E0,-1.722932144E1,-1.008363098E1,1.920678792E0,-2.003092319E-1,8.612595201E-1,4.477669895E-1
1.921925792E0,2.814147949E-2,-2.211156876E1,-1.472697510E1,1.930660792E0,-1.238079309E0,4.867243767E-1,1.415390968E-1
1.931907792E0,1.107247467E0,-2.629462006E1,-1.716435654E1,1.940643417E0,-2.058800220E0,-1.159972310E0,-3.481722772E-1
1.941890417E0,2.080673218E0,-2.614612885E1,-1.752375916E1,1.950625417E0,-2.334627628E0,-3.036071062E0,-8.186381459E-1
1.951872417E0,3.134332123E0,-2.189661575E1,-1.642788803E1,1.960607417E0,-2.006418943E0,-3.291679382E0,-1.097349286E0
1.961854417E0,2.994672546E0,-1.585472992E1,-1.225950623E1,1.970589417E0,-1.346113443E0,-2.088568211E0,-1.171470165E0
1.971836417E0,2.295775909E0,-9.960886230E0,-7.428153076E0,1.980572417E0,-5.989535451E-1,-5.079751611E-1,-1.012969017E0
1.981819417E0,1.797162781E0,-5.377417603E0,-4.255650330E0,1.990554417E0,5.970696732E-2,9.476733208E-1,-7.202302814E-1
1.991801417E0,1.638043671E0,-2.231409760E0,-2.603685608E0,2.000536417E0,6.449981332E-1,1.653310776E0,-2.070689648E-1
2.001783417E0,5.068460083E-1,-2.445913696E0,-1.035396881E0,2.010518417E0,1.023888588E0,1.894729018E0,2.838378251E-1
2.011765417E0,-7.747888184E-1,-6.239924011E0,1.404080200E-1,2.020501417E0,1.143419981E0,2.410948038E0,4.780538976E-1
2.021748417E0,-7.030879211E-1,-1.076950470E1,1.747166748E0,2.030483417E0,1.284003377E0,2.955600500E0,3.647698164E-1
2.031730417E0,-3.375480652E-1,-1.457983109E1,6.388415222E0,2.040465417E0,1.465161920E0,2.589801073E0,2.379128188E-1
2.041712417E0,-1.284927979E0,-1.632295624E1,1.019470001E1,2.050447417E0,1.376032472E0,1.678823948E0,2.010597587E-1
2.051694417E0,-3.951782227E0,-1.610785355E1,8.600215759E0,2.060430417E0,7.134531736E-1,3.645909727E-1,8.576431870E-2
2.061677417E0,-5.256169739E0,-1.453672073E1,3.610641632E0,2.070412417E0,-2.427945733E-1,-1.620327711E0,-8.384691179E-2
2.071659417E0,-4.941673737E0,-1.270752457E1,-4.742438049E0,2.080394417E0,-9.294275045E-1,-3.043648005E0,-7.669366151E-2
2.081641417E0,-4.436923370E0,-1.071426956E1,-9.740095367E0,2.090376417E0,-1.037419796E0,-2.484061718E0,1.116439030E-1
2.091623417E0,-4.441264343E0,-8.191715240E0,-6.979236603E0,2.100359417E0,-2.509367466E-1,-5.684544444E-1,2.905864716E-1
2.101606417E0,-4.878355408E0,-5.226830750E0,-1.217118988E0,2.110341417E0,9.966534972E-1,1.333999157E0,4.154524207E-1
2.111588417E0,-4.241729279E0,-2.637814636E0,4.044738922E0,2.120323417E0,1.904135346E0,2.742959499E0,5.070710182E-1
2.121570417E0,-3.665128326E0,-2.053729248E0,5.223387909E0,2.130305417E0,2.280332327E0,3.758165121E0,6.658744216E-1
2.131552417E0,-3.731141052E0,-3.206182709E0,4.583169250E0,2.140288417E0,2.239194870E0,4.254635811E0,9.692284465E-1
2.141535417E0,-4.026177521E0,-5.035827942E0,4.525838470E0,2.150270417E0,1.925997615E0,3.924764395E0,1.323422074E0
2.151517417E0,-4.571942596E0,-7.166796570E0,4.518653412E0,2.160252417E0,1.521983385E0,2.891400099E0,1.552495718E0
2.161499417E0,-4.221072235E0,-9.218729553E0,4.527335358E0,2.170234417E0,1.230685353E0,1.402571917E0,1.534337163E0
2.171481417E0,-2.708318024E0,-1.146630569E1,4.627327423E0,2.180217417E0,1.226523876E0,-2.180138528E-1,1.442014694E0
2.181464417E0,-6.321354675E-1,-1.321287369E1,4.220174103E0,2.190199417E0,1.498853326E0,-1.545081139E0,1.328424215E0
2.191446417E0,1.738933868E0,-1.402987473E1,3.255579987E0,2.200181417E0,1.815561771E0,-2.030944824E0,1.037966847E0
2.201428417E0,4.880900116E0,-1.436218369E1,1.605112152E0,2.210163417E0,1.895904899E0,-1.499453783E0,5.202171206E-1
2.211410417E0,8.107141113E0,-1.447849182E1,-9.822573853E-1,2.220146417E0,1.640823841E0,-5.570324063E-1,4.929031245E-3
2.221393417E0,9.529034271E0,-1.403152130E1,-3.807332611E0,2.230128417E0,1.403647184E0,1.172887608E-1,-3.909564614E-1
2.231375417E0,8.005352783E0,-1.284074753E1,-4.350702667E0,2.240110417E0,1.332521558E0,4.792762697E-1,-7.430370450E-1
2.241357417E0,5.626349945E0,-1.173769135E1,-3.099155273E0,2.250092417E0,1.381598353E0,6.470159292E-1,-1.000283599E0
2.251339417E0,3.184627533E0,-1.078881454E1,-1.855691071E0,2.260075417E0,1.467719078E0,6.209004521E-1,-1.111957908E0
2.261322417E0,8.161029053E-1,-9.746082916E0,-1.162931671E0,2.270057417E0,1.538595557E0,5.060985684E-1,-1.091586828E0
2.271304417E0,-1.251697083E0,-8.607700195E0,-8.734336853E-1,2.280039417E0,1.551413655E0,4.163478911E-1,-9.730672240E-1
2.281286417E0,-2.830763397E0,-7.658973083E0,-7.506889343E-1,2.290021417E0,1.545041442E0,3.625930548E-1,-7.914333344E-1
2.291269417E0,-3.687581635E0,-7.008874969E0,-5.870791626E-1,2.300004417E0,1.509622931E0,3.560493886E-1,-5.098029971E-1
2.301251417E0,-4.229305115E0,-6.530170441E0,-4.212240601E-1,2.309986417E0,1.454321265E0,2.906469703E-1,-2.109535784E-1
2.311233417E0,-4.348157959E0,-6.408024445E0,-2.167492676E-1,2.319968417E0,1.338023901E0,2.272770405E-1,3.065131977E-2
2.321215417E0,-3.760180664E0,-6.807393951E0,-1.347198486E-3,2.329950417E0,1.192391157E0,2.637706101E-1,2.274560034E-1
2.331198417E0,-2.893632660E0,-7.238946533E0,-9.490264893E-2,2.339933417E0,1.081295252E0,4.548918307E-1,3.706770539E-1
2.341180417E0,-1.767225037E0,-7.768994293E0,-3.279679871E-1,2.349915417E0,1.018723607E0,7.496236563E-1,4.599752128E-1
2.351162417E0,-6.093827820E-1,-8.339907074E0,-5.427713013E-1,2.359897417E0,9.628015161E-1,9.582349062E-1,4.711815417E-1
2.361144417E0,4.105961609E-1,-8.916508026E0,-8.623567200E-1,2.369879417E0,9.222167134E-1,1.032010078E0,4.405124784E-1
2.371127417E0,1.032852173E0,-9.169332275E0,-7.126679993E-1,2.379862417E0,8.921392560E-1,9.988784194E-1,3.890676498E-1
2.381109417E0,1.451980591E0,-9.138945465E0,-3.370989990E-1,2.389844417E0,9.028995037E-1,9.021888971E-1,3.173697591E-1
2.391091417E0,1.731748810E0,-8.882678375E0,2.290237427E-1,2.399826417E0,9.799026251E-1,8.002671003E-1,3.309281766E-1
2.401073417E0,1.622176666E0,-8.652307434E0,7.943980408E-1,2.409808417E0,1.087118626E0,6.200139523E-1,4.015633166E-1
2.411056417E0,9.427395630E-1,-8.334667969E0,1.151705017E0,2.419791417E0,1.198418260E0,4.789487123E-1,4.752551019E-1
2.421038417E0,5.783972168E-1,-8.010741577E0,1.322200470E0,2.429773417E0,1.347396374E0,3.965704739E-1,5.325558782E-1
2.431020417E0,2.341131592E-1,-7.939489746E0,1.411265259E0,2.439755417E0,1.576565623E0,3.015134633E-1,5.569331050E-1
2.441002417E0,1.549278259E-1,-8.163124695E0,1.504521332E0,2.449737417E0,1.846621513E0,2.128184885E-1,5.929074883E-1
2.450985417E0,-1.691482544E-2,-8.878636780E0,1.668280792E0,2.459720417E0,2.026929140E0,1.853908598E-1,6.023425460E-1
2.460967417E0,-9.879455566E-2,-9.950857086E0,1.436862030E0,2.469702417E0,2.033073902E0,2.710114717E-1,5.837322474E-1
2.470949417E0,4.385879517E-2,-1.050036438E1,8.919950867E-1,2.479684417E0,1.867197037E0,3.504221439E-1,5.841008425E-1
2.480931417E0,4.022135925E-1,-1.048389862E1,3.293151855E-3,2.489666417E0,1.571524739E0,2.823099792E-1,5.970194340E-1
2.490914417E0,7.041357422E-1,-1.036414764E1,-1.126557312E0,2.499649417E0,1.236369848E0,7.451094687E-2,5.883417726E-1
2.500896417E0,1.257385254E0,-1.074181229E1,-2.176473999E0,2.509631417E0,9.451351762E-1,-1.697339565E-1,5.144714117E-1
2.510878417E0,2.073787537E0,-1.168559967E1,-2.959046631E0,2.519613417E0,6.839113235E-1,-2.603474855E-1,3.423478603E-1
2.520860417E0,2.872227173E0,-1.286469772E1,-3.589385834E0,2.529595417E0,4.397417903E-1,-1.052270737E-2,1.154885143E-1
2.530843417E0,3.461851044E0,-1.311138474E1,-3.644022217E0,2.539578417E0,1.671587378E-1,4.802003801E-1,-6.722164899E-2
2.540825417E0,3.424578552E0,-1.227193039E1,-2.857707367E0,2.549560417E0,-1.215736121E-1,9.114841819E-1,-1.531980187E-1
2.550807417E0,2.618804169E0,-1.161509628E1,-1.836231537E0,2.559542417E0,-3.042584658E-1,1.034971118E0,-1.406894177E-1
2.560789417E0,1.529669037E0,-1.151061356E1,-5.492079163E-1,2.569524417E0,-2.730148435E-1,8.688341379E-1,-1.106076911E-1
2.570772417E0,7.677534485E-1,-1.154713760E1,7.370672607E-1,2.579507417E0,-7.398030162E-2,3.297163248E-1,-8.378726244E-2
2.580754417E0,6.059399414E-1,-1.203766754E1,1.173559570E0,2.589489417E0,1.293719411E-1,-2.324495316E-1,-7.354823500E-2
2.590736417E0,2.323168945E-1,-1.228330673E1,3.255729675E-1,2.599471417E0,6.182406098E-2,-6.576344371E-1,-7.554571144E-3
2.600718417E0,-6.286926270E-2,-1.233674561E1,-1.934427338E0,2.609454417E0,-4.296959043E-1,-8.353365064E-1,1.439705938E-1
2.610701417E0,3.532653809E-2,-1.256981094E1,-4.382586365E0,2.619436417E0,-1.181309223E0,-7.795650959E-1,2.492243201E-1
2.620683417E0,1.097817078E0,-1.329071182E1,-5.360353088E0,2.629418417E0,-1.821288466E0,-5.109559894E-1,1.909061819E-1
2.630665417E0,2.745141449E0,-1.444376404E1,-4.280947723E0,2.639400417E0,-2.127263784E0,-1.463505924E-1,-6.671684235E-2
2.640647417E0,3.598816223E0,-1.451980591E1,-1.891316986E0,2.649383417E0,-2.262055874E0,1.014003605E-1,-4.216300547E-1
2.650630417E0,3.523073730E0,-1.391476410E1,-1.131646729E-1,2.659365417E0,-2.477442026E0,1.536273509E-1,-7.055491209E-1
2.660612417E0,3.017425232E0,-1.291933411E1,2.824626160E-1,2.669347417E0,-2.818376780E0,-1.119222492E-2,-8.452304602E-1
2.670594417E0,2.479443970E0,-1.208751389E1,1.863624573E-1,2.679329417E0,-3.144108534E0,-4.503189921E-1,-8.963631988E-1
2.680576417E0,2.097438354E0,-1.182181641E1,5.848338318E-1,2.689312417E0,-3.437499046E0,-1.064917445E0,-8.873266578E-1
2.690559417E0,1.689686279E0,-1.208736420E1,1.119821320E0,2.699294417E0,-3.600146770E0,-1.695569754E0,-8.114947677E-1
2.700541417E0,6.810836792E-1,-1.291035278E1,1.427281952E0,2.709276417E0,-3.653585196E0,-1.956681848E0,-7.869898081E-1
2.710523417E0,-4.432283020E-1,-1.417671936E1,2.325563965E0,2.719258417E0,-3.502082586E0,-1.888637185E0,-8.470358849E-1
2.720505417E0,-1.614841919E0,-1.504521332E1,2.940934296E0,2.729241417E0,-3.168168306E0,-1.685978413E0,-8.382837772E-1
2.730488417E0,-3.754941559E0,-1.638298141E1,2.876268768E0,2.739223417E0,-2.922164202E0,-1.237554312E0,-6.921198964E-1
2.740470417E0,-6.854096832E0,-1.824630661E1,1.716630249E0,2.749205417E0,-2.813996077E0,-3.503037095E-1,-5.294765830E-1
2.750452417E0,-9.563312988E0,-1.930116302E1,5.249583435E-1,2.759187417E0,-2.658494234E0,6.483497024E-1,-3.926708102E-1
2.760435417E0,-1.020098694E1,-1.771715698E1,8.267308044E-1,2.769170417E0,-2.468196869E0,1.387516975E0,-1.764947921E-1
2.770417417E0,-8.404422913E0,-1.450199295E1,1.444196777E0,2.779152417E0,-2.348316193E0,1.809440017E0,-3.423832357E-2
2.780399417E0,-5.671106873E0,-1.187615341E1,1.569486237E0,2.789134417E0,-2.286398172E0,1.900350690E0,3.990595043E-2
2.790381417E0,-3.112627258E0,-1.057940002E1,1.562001801E0,2.799116417E0,-2.208395958E0,1.672280550E0,5.388168991E-2
2.800364417E0,-1.236728210E0,-1.014006363E1,1.612147522E0,2.809099417E0,-2.085523367E0,1.159277916E0,3.851261362E-2
2.810346417E0,9.535171509E-2,-1.010548553E1,1.659449158E0,2.819081417E0,-1.946063519E0,5.927770138E-1,5.514831468E-2
2.820328417E0,7.899073792E-1,-1.024589355E1,1.538650360E0,2.829063417E0,-1.890948534E0,-3.112813085E-2,6.118520722E-2
2.830310417E0,8.005352783E-1,-1.006057892E1,7.529342651E-1,2.839045417E0,-1.925519228E0,-7.044042945E-1,-3.912062570E-2
2.840293417E0,1.332678680E0,-9.765542450E0,-5.303471375E-1,2.849028417E0,-1.940405250E0,-1.403277397E0,-2.133494169E-1
2.850275417E0,2.270029449E0,-9.742191010E0,-1.002764740E0,2.859010417E0,-1.995307326E0,-1.648075461E0,-4.191545248E-1
2.860257417E0,3.256029053E0,-9.737251282E0,-1.241218872E0,2.868992417E0,-2.005461693E0,-1.261894703E0,-6.731076837E-1
2.870239417E0,4.260440369E0,-9.539662170E0,-1.659000092E0,2.878974417E0,-1.890038371E0,-6.296469569E-1,-8.043943048E-1
2.880222417E0,4.139641571E0,-8.723858643E0,-1.168320465E0,2.888957417E0,-1.753649116E0,-3.607116342E-1,-8.208025694E-1
2.890204417E0,1.952689362E0,-7.719896393E0,-3.990701294E-1,2.898939417E0,-1.682733417E0,-5.755778551E-1,-8.040084243E-1
2.900186417E0,1.666035461E-1,-6.959777069E0,-8.532257080E-3,2.908921417E0,-1.657928705E0,-1.105954051E0,-8.057684898E-1
2.910168417E0,-7.268884277E-1,-5.981112213E0,6.707551575E-1,2.918903417E0,-1.610527158E0,-1.739489436E0,-7.540456653E-1
2.920151417E0,-1.113983459E0,-5.154082031E0,1.582209778E0,2.928886417E0,-1.534932137E0,-2.402678013E0,-6.733198166E-1
2.930133417E0,-1.400787048E0,-4.763244781E0,2.381846924E0,2.938868417E0,-1.463900328E0,-2.961823940E0,-6.258153915E-1
2.940115958E0,-1.155297546E0,-4.399950256E0,2.616558838E0,2.948850958E0,-1.375380397E0,-3.225489855E0,-6.063457727E-1
2.950097958E0,-1.234183502E0,-3.869752808E0,2.424657898E0,2.958833958E0,-1.235603333E0,-3.178526878E0,-6.174026728E-1
2.960080958E0,-1.226998444E0,-3.397484894E0,1.837129669E0,2.968815958E0,-9.842430353E-1,-2.680529356E0,-5.589770079E-1
2.970062958E0,-1.553918610E0,-2.966531067E0,1.371298370E0,2.978797958E0,-6.598633528E-1,-1.933288097E0,-4.766914546E-1
2.980044958E0,-1.982926483E0,-2.589764557E0,8.170010376E-1,2.988779958E0,-3.202683330E-1,-1.273254156E0,-4.302440286E-1
2.990026958E0,-1.937271423E0,-2.302960968E0,1.556762695E-1,2.998761958E0,4.246965796E-2,-8.847317100E-1,-3.964908421E-1
3.000009958E0,-2.015259247E0,-2.230511627E0,-1.407073975E-2,3.008744958E0,4.294562936E-1,-7.310143113E-1,-3.744468689E-1
3.009991958E0,-2.071841583E0,-2.469714203E0,2.700384521E-1,3.018726958E0,8.235908151E-1,-7.205983996E-1,-3.896412849E-1
3.019973958E0,-2.065255280E0,-2.709365845E0,6.265969849E-1,3.028708958E0,1.208527684E0,-7.981283665E-1,-4.286400378E-1
3.029955958E0,-2.115999756E0,-3.037184143E0,8.770262146E-1,3.038691958E0,1.587469101E0,-8.715767264E-1,-4.833267331E-1
3.039938958E0,-2.123334503E0,-3.320544891E0,6.885681152E-1,3.048673958E0,1.937410116E0,-8.987714052E-1,-5.234512091E-1
3.049920958E0,-2.085313568E0,-3.519181824E0,-2.499801636E-2,3.058655958E0,2.249343157E0,-8.366675377E-1,-5.033710003E-1
3.059902958E0,-2.210004272E0,-3.851191406E0,-9.327104187E-1,3.068637958E0,2.517881632E0,-7.098392248E-1,-4.236437082E-1
3.069884958E0,-2.377356262E0,-4.519102478E0,-1.774260406E0,3.078620958E0,2.727291822E0,-5.728241205E-1,-2.912079096E-1
3.079867958E0,-2.427801361E0,-5.635031891E0,-2.479593658E0,3.088602958E0,2.778816223E0,-3.711965084E-1,-1.036333144E-1
3.089849958E0,-2.402503967E0,-7.294331360E0,-3.522325287E0,3.098584958E0,2.482511759E0,-1.085563600E-1,1.159520373E-1
3.099831958E0,-2.226020966E0,-9.846673737E0,-5.923781433E0,3.108566958E0,1.840089202E0,2.519035637E-1,3.247914016E-1
3.109813958E0,-1.688937836E0,-1.337468719E1,-9.292675781E0,3.118549958E0,9.287319779E-1,7.413190603E-1,4.245904386E-1
3.119796958E0,-7.271878052E-1,-1.722917175E1,-1.255334518E1,3.128531958E0,-2.745302618E-1,1.072881579E0,2.786912918E-1
3.129778958E0,6.047424316E-1,-2.126283371E1,-1.773751465E1,3.138513958E0,-1.288299441E0,3.097788393E-1,-1.015564352E-1
3.139760958E0,2.493814087E0,-2.432112396E1,-2.200993011E1,3.148495958E0,-1.553883076E0,-1.216467977E0,-4.998306036E-1
3.149742958E0,4.209246826E0,-2.310939377E1,-1.940055634E1,3.158478958E0,-1.408197045E0,-1.986457825E0,-7.555571795E-1
3.159725958E0,4.078269196E0,-1.779574356E1,-1.311243256E1,3.168460958E0,-1.204117060E0,-2.094937563E0,-8.600502014E-1
3.169707958E0,2.773432617E0,-1.185474792E1,-8.806187439E0,3.178442958E0,-9.962003827E-1,-1.959110379E0,-8.232634068E-1
3.179689958E0,1.919757843E0,-6.975195007E0,-6.371051331E0,3.188424958E0,-6.495672464E-1,-1.680772185E0,-6.678039432E-1
3.189671958E0,1.169218597E0,-3.102298737E0,-3.794908447E0,3.198407958E0,-4.074835777E-2,-1.089682460E0,-5.326871276E-1
3.199654958E0,5.879772949E-1,-3.932322693E-1,-9.072633362E-1,3.208389958E0,6.632876992E-1,-6.281870604E-2,-4.580192566E-1
3.209636958E0,-1.157093811E-1,-3.671864319E-1,1.466201019E0,3.218371958E0,1.304149628E0,1.175134659E0,-3.470333517E-1
3.219618958E0,-1.629062347E0,-3.552412720E0,2.467169495E0,3.228353958E0,1.953021884E0,2.360248327E0,-2.484491020E-1
3.229600958E0,-3.001857605E0,-7.537575531E0,4.221521301E0,3.238336958E0,2.571747541E0,3.015455008E0,-1.632300764E-1
3.239583958E0,-3.415297852E0,-1.174577454E1,6.663094025E0,3.248318958E0,2.927028179E0,3.061165571E0,9.688921273E-2
3.249565958E0,-4.370461578E0,-1.615994522E1,8.081993408E0,3.258300958E0,2.647249937E0,2.794923782E0,4.630837142E-1
3.259547958E0,-6.254892883E0,-2.038805283E1,7.483388214E0,3.268282958E0,1.012501478E0,1.974957108E0,3.030828238E-1
3.269529958E0,-6.406826935E0,-2.479683472E1,5.740562439E-1,3.278265958E0,-1.212151408E0,5.763956308E-1,-1.485501230E-1
3.279512958E0,-1.897304535E0,-2.840508133E1,-1.357841354E1,3.288247958E0,-2.165787697E0,1.094670594E-1,-1.240929589E-1
3.289494958E0,5.698649597E-1,-2.459400650E1,-1.150417694E1,3.298229958E0,-1.958876133E0,-4.223554861E-3,-1.724933274E-2
3.299476958E0,-6.968009949E-1,-1.611908020E1,-2.859803009E0,3.308211958E0,-1.094859004E0,2.114133686E-1,-8.702416718E-2
3.309458958E0,-1.723066864E0,-9.588909760E0,2.657723236E0,3.318194958E0,-8.752564900E-4,7.371091247E-1,-3.247307539E-1
3.319441958E0,-1.247505798E0,-4.560566254E0,7.341333618E0,3.328176958E0,9.654783010E-1,1.019177079E0,-5.824677348E-1
3.329423958E0,-5.212161255E-1,-6.935078430E-1,6.840175781E0,3.338158958E0,1.656159282E0,1.449814677E0,-7.265878916E-1
3.339405958E0,-1.125060425E0,9.258247375E-1,4.872218170E0,3.348140958E0,1.878460169E0,2.317311049E0,-7.171831727E-1
3.349387958E0,-2.389630737E0,2.800675964E-1,3.367996216E0,3.358123958E0,1.847591162E0,3.344074726E0,-3.597581685E-1
3.359370958E0,-3.824846191E0,-1.382974091E0,3.091221771E0,3.368105958E0,1.721220255E0,3.958521366E0,2.085492462E-1
3.369352958E0,-5.316045227E0,-3.554658051E0,4.334685974E0,3.378087958E0,1.541006804E0,4.021866798E0,7.732096910E-1
3.379334958E0,-5.605243835E0,-6.058351593E0,5.161716156E0,3.388069958E0,1.353920460E0,3.496335506E0,1.379828811E0
3.389316958E0,-5.887407074E0,-8.834927673E0,4.818330231E0,3.398052958E0,1.478879452E0,1.832682967E0,1.887881160E0
3.399299958E0,-5.780229950E0,-1.262085480E1,4.121828613E0,3.408034958E0,1.755817890E0,-1.985695958E-1,2.073697805E0
3.409281958E0,-4.387077026E0,-1.577629303E1,3.422632599E0,3.418016958E0,2.069945574E0,-1.770292997E0,1.858368397E0
3.419263958E0,-9.086105347E-1,-1.653701111E1,2.791395264E0,3.427998958E0,2.487165451E0,-2.608445644E0,1.389369011E0
3.429245958E0,3.219505005E0,-1.717243973E1,1.418300629E0,3.437981958E0,2.710495234E0,-2.174932241E0,6.793278456E-1
3.439228958E0,7.045099640E0,-1.737451950E1,-9.369017029E-1,3.447963958E0,2.303783894E0,-5.933361053E-1,-5.009582266E-2
3.449210958E0,1.030726593E1,-1.574186462E1,-4.134402466E0,3.457945958E0,1.524726868E0,8.381217122E-1,-3.305674493E-1
3.459192958E0,9.016799469E0,-1.279898438E1,-5.731880493E0,3.467927958E0,9.029180408E-1,1.539591551E0,-4.271884859E-1
3.469174958E0,6.060896301E0,-1.049332901E1,-4.397854614E0,3.477909958E0,7.580380440E-1,1.598845720E0,-5.355426669E-1
3.479157958E0,3.387006683E0,-8.759783936E0,-1.661095734E0,3.487892958E0,1.005355477E0,1.310625911E0,-6.174669266E-1
3.489139958E0,7.417076111E-1,-7.447163544E0,7.686515808E-1,3.497874958E0,1.377494335E0,9.588311315E-1,-5.907593966E-1
3.499121958E0,-1.520388336E0,-6.459367676E0,2.049238586E0,3.507856958E0,1.607743621E0,8.110840321E-1,-4.387426376E-1
3.509103958E0,-3.252137146E0,-5.839506683E0,1.899250488E0,3.517838958E0,1.641568661E0,7.674492002E-1,-2.016845345E-1
3.519086958E0,-4.052373047E0,-5.731880493E0,8.231382751E-1,3.527821958E0,1.476009130E0,6.887775660E-1,8.472450078E-2
3.529068958E0,-3.966002655E0,-5.773044891E0,-1.874102783E-1,3.537803958E0,1.157813907E0,5.436997414E-1,3.337934315E-1
3.539050958E0,-3.347638550E0,-6.121969299E0,-7.316784668E-1,3.547785958E0,8.933311105E-1,3.253695071E-1,5.044695735E-1
3.549032958E0,-2.186054077E0,-6.512207794E0,-2.043251038E-1,3.557767958E0,7.889239788E-1,2.941268981E-1,6.083298922E-1
3.559015958E0,-1.079255676E0,-6.916666718E0,8.491841125E-1,3.567750958E0,8.451511264E-1,3.788830936E-1,6.396943331E-1
3.568997958E0,-1.332229614E-1,-7.267088013E0,1.594783630E0,3.577732958E0,1.007766724E0,4.727653861E-1,6.106019616E-1
3.578979958E0,5.601351929E-1,-7.559130707E0,1.912123718E0,3.587714958E0,1.228455901E0,6.451960206E-1,5.204664469E-1
3.588961958E0,7.529342651E-1,-7.739505615E0,2.146087189E0,3.597696958E0,1.477278709E0,7.602632046E-1,4.086996913E-1
3.598943958E0,6.574328613E-1,-7.850125580E0,2.170785828E0,3.607679958E0,1.725924611E0,6.513809562E-1,3.318690658E-1
3.608926958E0,2.525248718E-1,-7.815846863E0,1.900298309E0,3.617661958E0,1.956161618E0,4.301438928E-1,2.979707420E-1
3.618908958E0,-4.828958130E-1,-7.674091644E0,1.297501831E0,3.627643958E0,2.106100559E0,3.724654019E-1,3.244618773E-1
3.628890958E0,-1.350491638E0,-7.678582306E0,4.020639038E-1,3.637625958E0,2.079030275E0,4.791090190E-1,3.951792121E-1
3.638872958E0,-2.044149170E0,-8.377778320E0,-1.150806885E0,3.647608958E0,1.788503766E0,7.290917039E-1,5.156079531E-1
3.648855958E0,-2.283800812E0,-9.496551819E0,-2.858605499E0,3.657590958E0,1.289060116E0,1.066409349E0,6.935707927E-1
3.658837958E0,-1.779948578E0,-1.027029282E1,-3.854634247E0,3.667572958E0,7.367837429E-1,1.284369230E0,9.014579058E-1
3.668819958E0,-8.607101440E-1,-1.060320053E1,-3.694317627E0,3.677554958E0,2.913751006E-1,1.202955961E0,1.045421243E0
3.678801958E0,3.897894287E-1,-1.107292374E1,-2.699935455E0,3.687537958E0,9.609894454E-2,7.860601544E-1,1.075464964E0
3.688784958E0,1.566193085E0,-1.195429092E1,-1.456171875E0,3.697519958E0,1.499299556E-1,2.138304859E-1,9.739521146E-1
3.698766958E0,3.002306671E0,-1.263657211E1,-1.814227295E-1,3.707501958E0,3.350937665E-1,2.311909571E-2,7.792617679E-1
3.708748958E0,4.214635620E0,-1.291963348E1,9.858499146E-1,3.717483958E0,4.761116207E-1,3.711747006E-2,4.881803691E-1
3.718730958E0,5.443879395E0,-1.258253448E1,1.492546234E0,3.727465958E0,4.751757681E-1,2.222212702E-1,1.666001379E-1
3.728713958E0,6.292913818E0,-1.204185883E1,1.027313690E0,3.737448958E0,3.988559842E-1,4.288847148E-1,-1.290104687E-1
3.738695958E0,5.917943573E0,-1.155058044E1,2.664459229E-1,3.747430958E0,3.462100029E-1,5.259957910E-1,-3.484563231E-1
3.748677958E0,4.514312439E0,-1.161359940E1,-3.001258850E-1,3.757412958E0,3.586405814E-1,4.890311658E-1,-4.094216824E-1
3.758659958E0,2.509830780E0,-1.172242310E1,-6.236032104E-1,3.767394958E0,3.490393460E-1,3.771903813E-1,-3.801184595E-1
3.768642958E0,7.209008789E-1,-1.130314499E1,-1.165326691E0,3.777377958E0,1.631541550E-1,1.621736735E-1,-2.620868981E-1
3.778624958E0,-3.876937866E-1,-1.112920670E1,-1.891466675E0,3.787359958E0,-1.793213040E-1,1.089066826E-2,-1.015721858E-1
3.788606958E0,-8.301736450E-1,-1.175176208E1,-2.557581482E0,3.797341958E0,-6.829910874E-1,-4.187667370E-2,4.853316396E-2
3.798588958E0,-6.764433289E-1,-1.319685699E1,-2.778372345E0,3.807323958E0,-1.299622536E0,-1.377278119E-1,1.358619332E-1
3.808571958E0,-4.505630493E-2,-1.487142471E1,-2.255659332E0,3.817306958E0,-1.798100591E0,-2.454079390E-1,6.563436985E-2
3.818553958E0,9.657916260E-1,-1.598570755E1,-1.399140472E0,3.827288958E0,-2.018104315E0,-3.125632405E-1,-2.459092438E-1
3.828535958E0,1.660496979E0,-1.612761246E1,2.454895020E-2,3.837270958E0,-1.986912370E0,-4.279545546E-1,-6.158492565E-1
3.838517958E0,1.584155731E0,-1.566956497E1,1.343007202E0,3.847252958E0,-1.929837108E0,-7.360351682E-1,-8.576795459E-1
3.848499958E0,9.720785522E-1,-1.498608627E1,1.423689423E0,3.857235958E0,-2.082725286E0,-9.963580966E-1,-9.155753255E-1
3.858482958E0,5.554948425E-1,-1.338845856E1,5.331912231E-1,3.867217958E0,-2.609621286E0,-9.147279859E-1,-8.993303180E-1
3.868464958E0,9.909393311E-2,-1.180475189E1,-1.173110504E0,3.877199958E0,-3.274824619E0,-7.063071728E-1,-7.879396081E-1
3.878446958E0,-4.718188477E-1,-1.084075653E1,-2.452200623E0,3.887181958E0,-3.729067087E0,-7.282947302E-1,-6.365449429E-1
3.888428958E0,-1.786983948E0,-1.078357544E1,-2.278262329E0,3.897164958E0,-3.784358501E0,-8.868761063E-1,-4.995439649E-1
3.898411958E0,-3.423830109E0,-1.176628189E1,-1.462159424E0,3.907146958E0,-3.500512600E0,-8.027654886E-1,-4.425523579E-1
3.908393958E0,-4.709356842E0,-1.328981369E1,-1.371148682E-1,3.917128958E0,-3.100767136E0,-4.100053906E-1,-4.330555201E-1
3.918375958E0,-5.402415619E0,-1.500090546E1,1.126257935E0,3.927110958E0,-2.804736137E0,2.500196397E-1,-4.103515744E-1
3.928357958E0,-5.833968201E0,-1.627730118E1,1.970801697E0,3.937092958E0,-2.646144390E0,8.863167167E-1,-3.555911183E-1
3.938340958E0,-5.575455780E0,-1.648042877E1,2.505190430E0,3.947075542E0,-2.598982811E0,1.256127000E0,-2.336102426E-1
3.948322542E0,-4.622088318E0,-1.539413773E1,2.723137207E0,3.957057542E0,-2.617663622E0,1.332169294E0,-1.180676818E-1
3.958304542E0,-3.205434265E0,-1.371103775E1,2.635868683E0,3.967039542E0,-2.595997095E0,1.184796095E0,-5.590122566E-2
3.968286542E0,-1.693278809E0,-1.212897766E1,2.783611450E0,3.977021542E0,-2.501948833E0,8.267346025E-1,-5.340690911E-2
3.978269542E0,-5.322930908E-1,-1.113863708E1,3.051853638E0,3.987004542E0,-2.325526714E0,3.605629504E-1,-1.284061819E-1
3.988251542E0,6.851252747E-1,-1.061472656E1,2.892734528E0,3.996986542E0,-2.045032263E0,5.433828756E-2,-2.267748266E-1
3.998233542E0,1.876797180E0,-1.056757462E1,2.570005646E0,4.006968542E0,-1.786004543E0,-1.152954698E-1,-3.178846538E-1
4.008215542E0,2.536026306E0,-1.090991272E1,1.802252197E0,4.016950542E0,-1.722066641E0,-3.551051319E-1,-3.904017210E-1
4.018197542E0,2.319576416E0,-1.128488297E1,-2.586621094E-1,4.026933542E0,-1.796272397E0,-4.905974567E-1,-4.601473510E-1
4.028180542E0,1.425186310E0,-1.123473724E1,-1.808539124E0,4.036915542E0,-1.876996517E0,-5.586708188E-1,-5.075364709E-1
4.038162542E0,4.363426208E-1,-1.057296341E1,-2.273023224E0,4.046897542E0,-1.790184021E0,-6.834819913E-1,-6.192765832E-1
4.048144542E0,2.158511353E-1,-9.896520081E0,-1.587748260E0,4.056879542E0,-1.558645844E0,-7.477621436E-1,-8.057657480E-1
4.058126542E0,8.075706482E-1,-9.299561462E0,-3.029699707E-1,4.066862542E0,-1.340596437E0,-7.833020091E-1,-9.709859490E-1
4.068109542E0,8.858578491E-1,-8.764723663E0,3.490740967E-1,4.076844542E0,-1.271137476E0,-8.533809781E-1,-1.027034998E0
4.078091542E0,5.375321960E-1,-8.614136810E0,-1.600172424E-1,4.086826542E0,-1.326285481E0,-1.063437343E0,-1.042407036E0
4.088073542E0,2.168989563E-1,-8.087082825E0,-6.873706055E-1,4.096808542E0,-1.407170653E0,-1.292252898E0,-1.022111058E0
4.098055542E0,-3.760180664E-1,-7.156318359E0,-5.212161255E-1,4.106790542E0,-1.424495935E0,-1.653871298E0,-9.234930873E-1
4.108038542E0,-6.533912659E-1,-6.290219421E0,-3.263214111E-2,4.116773542E0,-1.389281273E0,-1.949103475E0,-7.976688147E-1
4.118020542E0,-6.792874146E-1,-5.512137451E0,3.610491943E-1,4.126755542E0,-1.289433122E0,-2.020366430E0,-7.069978714E-1
4.128002542E0,-8.367599487E-1,-4.665947113E0,7.545808411E-1,4.136737542E0,-1.141463637E0,-2.040488720E0,-6.604902744E-1
4.137984542E0,-5.292993164E-1,-3.918102264E0,9.232800293E-1,4.146719542E0,-9.447361231E-1,-1.871808648E0,-6.020580530E-1
4.147967542E0,-6.906637573E-1,-3.238365784E0,1.002465363E0,4.156702542E0,-7.047986388E-1,-1.645478010E0,-5.747324228E-1
4.157949542E0,-7.355703735E-1,-2.893632660E0,9.223818970E-1,4.166684542E0,-4.377173781E-1,-1.335174680E0,-5.466083288E-1
4.167931542E0,-8.761280823E-1,-2.797682190E0,8.385562134E-1,4.176666542E0,-1.481462717E-1,-1.039818406E0,-4.813097417E-1
4.177913542E0,-1.250349884E0,-2.697241058E0,7.405101013E-1,4.186648542E0,1.408227980E-1,-8.231685162E-1,-4.325987101E-1
4.187895542E0,-1.599124603E0,-2.738255768E0,6.779402161E-1,4.196631542E0,4.154045582E-1,-7.281879783E-1,-3.943440020E-1
4.197878542E0,-1.869612122E0,-2.818638611E0,6.114784241E-1,4.206613542E0,6.961942315E-1,-6.520955563E-1,-3.336729109E-1
4.207860542E0,-2.188449097E0,-2.821183319E0,5.965095520E-1,4.216595542E0,9.863706827E-1,-6.229877472E-1,-2.798376381E-1
4.217842542E0,-2.402054901E0,-2.801274719E0,5.538482666E-1,4.226577542E0,1.268433809E0,-6.086292863E-1,-2.100910395E-1
4.227824542E0,-2.413131866E0,-2.813698883E0,3.727249146E-1,4.236560542E0,1.528779626E0,-5.897879601E-1,-1.214272305E-1
4.237807542E0,-2.491568756E0,-2.972668304E0,-1.037342834E-1,4.246542542E0,1.755285501E0,-5.561950803E-1,-2.845946699E-2
4.247789542E0,-2.456242218E0,-3.357368317E0,-9.062155151E-1,4.256524542E0,1.962937117E0,-4.989973307E-1,8.203028888E-2
4.257771542E0,-2.447260895E0,-4.083358612E0,-1.790277100E0,4.266506542E0,2.173443794E0,-4.195371270E-1,2.217243314E-1
4.267753542E0,-2.681224365E0,-5.219496002E0,-2.496508484E0,4.276488542E0,2.335435867E0,-2.989867628E-1,3.694528043E-1
4.277736542E0,-2.872376862E0,-6.818021851E0,-3.003953247E0,4.286471542E0,2.326520681E0,-9.507198632E-2,4.825254381E-1
4.287718542E0,-2.737058258E0,-9.085656281E0,-3.993994446E0,4.296453542E0,2.058936596E0,2.195275128E-1,5.604135990E-1
4.297700542E0,-2.245330811E0,-1.221804245E1,-5.868995361E0,4.306435542E0,1.451389909E0,3.815438449E-1,5.762531757E-1
4.307682542E0,-1.232237549E0,-1.597942062E1,-8.924890594E0,4.316417542E0,6.358836293E-1,2.840239704E-1,5.265721679E-1
4.317665542E0,-1.591191101E-1,-1.976100677E1,-1.247056732E1,4.326400542E0,-2.675478756E-1,-3.795159459E-1,3.594610989E-1
4.327647542E0,1.549278259E-1,-2.297048264E1,-1.540356812E1,4.336382542E0,-1.354135990E0,-1.782705426E0,-5.990660563E-2
4.337629542E0,1.917362823E0,-2.365351227E1,-1.932301758E1,4.346364542E0,-1.921537995E0,-2.669820547E0,-5.801055431E-1
4.347611542E0,5.344186707E0,-2.125085861E1,-2.065509750E1,4.356346542E0,-1.745190620E0,-1.935652375E0,-9.025824070E-1
4.357594542E0,6.473887482E0,-1.692201050E1,-1.313638275E1,4.366329542E0,-1.109645486E0,-4.929556847E-1,-1.083683014E0
4.367576542E0,6.490502930E0,-1.197060699E1,-6.097120972E0,4.376311542E0,-3.226135075E-1,6.515961289E-1,-1.158132195E0
4.377558542E0,6.007906494E0,-7.668553162E0,-2.232307892E0,4.386293542E0,3.656590879E-1,1.130260348E0,-1.115230441E0
4.387540542E0,4.884193268E0,-4.847369843E0,-1.184187469E0,4.396275542E0,9.655405879E-1,1.009777188E0,-7.788095474E-1
4.397522542E0,2.338586884E0,-4.912185059E0,-1.299148407E0,4.406258542E0,1.526129007E0,6.620274186E-1,-2.541722059E-1
4.407505542E0,-3.146456909E-1,-7.714357910E0,-2.243833923E-1,4.416240542E0,1.914463520E0,5.673142672E-1,1.540352702E-1
4.417487542E0,-1.358574829E0,-1.169577850E1,1.306034088E0,4.426222542E0,1.971364498E0,1.166197300E0,2.651211917E-1
4.427469542E0,-1.436712341E0,-1.611354172E1,2.781366119E0,4.436204542E0,1.542717457E0,2.135327578E0,-1.627959125E-2
4.437451542E0,-6.322851562E-1,-1.946372498E1,4.032464447E0,4.446187542E0,7.468485832E-1,2.398372412E0,-5.777518153E-1
4.447434542E0,6.664141846E-1,-1.970951385E1,4.205055542E0,4.456169542E0,1.026107371E-1,1.239845753E0,-9.285625219E-1
4.457416542E0,-3.406915283E-1,-1.651964722E1,2.331551514E0,4.466151542E0,-1.449946612E-1,-1.620651186E-1,-1.067662597E0
4.467398542E0,-2.264490967E0,-1.235111572E1,-5.237608337E-1,4.476133542E0,-1.934173107E-1,-6.753582358E-1,-1.041639805E0
4.477380542E0,-3.781586151E0,-8.771309967E0,-1.279838562E0,4.486115542E0,-3.659057319E-1,-1.089198828E0,-8.840855956E-1
4.487363542E0,-4.777614899E0,-6.028264160E0,-3.260519714E0,4.496098542E0,-3.991811275E-1,-1.842823863E0,-4.735891223E-1
4.497345542E0,-6.445296936E0,-4.134402466E0,-6.711144104E0,4.506080542E0,-3.496366367E-2,-1.403433204E0,-1.068705786E-2
4.507327542E0,-8.177794189E0,-2.540217590E0,-5.064119110E0,4.516062542E0,6.760497689E-1,4.157854617E-1,2.613753378E-1
4.517309542E0,-7.871680756E0,-1.215771790E0,3.911366272E-1,4.526044542E0,1.416246176E0,2.315724373E0,4.327566028E-1
4.527292542E0,-6.545887756E0,-1.126707001E0,3.726201324E0,4.536027542E0,1.918195248E0,3.553194046E0,7.249407768E-1
4.537274542E0,-6.375242615E0,-2.190844116E0,4.409829712E0,4.546009542E0,2.147259235E0,4.388993740E0,1.175336123E0
4.547256542E0,-7.270231476E0,-4.600682831E0,5.498216400E0,4.555991542E0,2.047915697E0,4.774109840E0,1.701473355E0
4.557238542E0,-7.754923553E0,-7.374714203E0,6.595135345E0,4.565973542E0,1.704648495E0,4.401093006E0,2.155140400E0
4.567220542E0,-7.298073578E0,-1.008991791E1,6.436614990E0,4.575956542E0,1.176272035E0,3.036580086E0,2.335520506E0
4.577203542E0,-5.569468231E0,-1.263896713E1,5.417384491E0,4.585938542E0,1.002711296E0,8.633581400E-1,2.392248631E0
4.587185542E0,-3.218606873E0,-1.470796463E1,3.952830048E0,4.595920542E0,1.274289131E0,-1.393991232E0,2.406266212E0
4.597167542E0,-2.758763123E-1,-1.556792633E1,2.844085693E0,4.605902542E0,1.688572049E0,-2.674055576E0,2.105854511E0
4.607149542E0,3.688928833E0,-1.557765610E1,1.179996185E0,4.615884542E0,1.841874719E0,-2.478130102E0,1.312824845E0
4.617132542E0,8.468789062E0,-1.530297729E1,-1.901046753E0,4.625867542E0,1.578957796E0,-1.165973783E0,3.923856318E-1
4.627114542E0,1.235410950E1,-1.433823349E1,-5.087620239E0,4.635849542E0,1.239746928E0,5.850614607E-2,-1.048576832E-1
4.637096542E0,1.212299011E1,-1.274195297E1,-5.176535339E0,4.645831542E0,1.001513362E0,5.446251631E-1,-3.259989023E-1
4.647078542E0,8.844358063E0,-1.154085068E1,-3.144510956E0,4.655813542E0,8.815057278E-1,4.124934673E-1,-5.435211062E-1
4.657061542E0,6.090384979E0,-1.040935364E1,-1.706152039E0,4.665796542E0,9.744573832E-1,7.656714320E-2,-7.160910964E-1
4.667043542E0,3.629352722E0,-9.180109863E0,-2.691403198E-1,4.675778542E0,1.217240334E0,-1.738509536E-1,-8.073866367E-1
4.677025542E0,1.432521057E0,-8.175997925E0,1.010847931E0,4.685760542E0,1.446699142E0,-3.033953607E-1,-7.796808481E-1
4.687007542E0,-2.070195007E-1,-7.252568207E0,1.494043121E0,4.695742542E0,1.555097461E0,-3.373666406E-1,-6.458972096E-1
4.696989542E0,-1.564995575E0,-6.900350647E0,1.388811951E0,4.705725542E0,1.528202176E0,-3.124127984E-1,-4.517044127E-1
4.706972542E0,-2.489473114E0,-7.033573608E0,1.074914703E0,4.715707542E0,1.415462255E0,-2.633272707E-1,-2.366783768E-1
4.716954542E0,-2.795885925E0,-7.336693268E0,7.107220459E-1,4.725689542E0,1.315209508E0,-2.313720435E-1,-5.107074976E-2
4.726936542E0,-2.961741028E0,-7.758516083E0,5.542973328E-1,4.735671542E0,1.272361279E0,-2.191798240E-1,4.961298406E-2
4.736918542E0,-2.565065918E0,-7.959847412E0,7.039860535E-1,4.745654542E0,1.242575169E0,-9.337875992E-3,1.406397671E-1
4.746901542E0,-2.238295441E0,-8.070167999E0,5.888754272E-1,4.755636542E0,1.177240849E0,2.712242901E-1,2.098702341E-1
4.756883542E0,-1.985171814E0,-8.212222595E0,2.559677124E-2,4.765618542E0,1.091768146E0,5.948563814E-1,2.991192639E-1
4.766865542E0,-1.571581879E0,-8.302335205E0,-5.435197449E-1,4.775600542E0,9.891059399E-1,8.440174460E-1,3.421375751E-1
4.776847542E0,-1.042581940E0,-8.471932526E0,-7.222480774E-1,4.785583542E0,9.223151803E-1,9.388496876E-1,3.706442118E-1
4.786830542E0,-4.924758911E-1,-8.542585602E0,-2.486329651E-1,4.795565542E0,9.100731611E-1,9.347580075E-1,4.024812281E-1
4.796812542E0,-1.425036621E-1,-8.522078247E0,3.875440979E-1,4.805547542E0,9.538986683E-1,8.375638127E-1,4.213847220E-1
4.806794542E0,2.077679443E-1,-8.581804047E0,1.009500732E0,4.815529542E0,1.086520433E0,5.746480227E-1,4.059093595E-1
4.816776542E0,5.995033264E-1,-8.520132294E0,1.701212311E0,4.825511542E0,1.361246347E0,2.688143253E-1,3.811815381E-1
4.826759542E0,7.951464844E-1,-8.721463623E0,2.330803070E0,4.835494542E0,1.752667665E0,4.510668293E-2,3.764357865E-1
4.836741542E0,4.712200928E-1,-9.089248810E0,2.966231689E0,4.845476542E0,2.114019156E0,7.356657647E-3,3.812374175E-1
4.846723542E0,-1.502874756E-1,-9.505084076E0,2.937491455E0,4.855458542E0,2.299353123E0,1.047737524E-1,4.051837623E-1
4.856705542E0,-7.759863281E-1,-9.857601013E0,1.877246246E0,4.865440542E0,2.221808910E0,2.606309950E-1,4.502308071E-1
4.866687542E0,-1.075064392E0,-9.859097900E0,-1.676513672E-2,4.875423542E0,1.854599237E0,4.212630093E-1,5.399508476E-1
4.876670542E0,-9.178912354E-1,-9.552685089E0,-2.399659882E0,4.885405542E0,1.291156292E0,4.705261886E-1,6.496543884E-1
4.886652542E0,-2.668949890E-1,-9.526040497E0,-4.570894775E0,4.895387542E0,7.521265745E-1,3.586364090E-1,7.172408700E-1
4.896634542E0,9.473799133E-1,-1.031115784E1,-5.457950134E0,4.905369542E0,4.110580385E-1,2.500145733E-1,6.999581456E-1
4.906616542E0,2.109712830E0,-1.176598251E1,-4.762646027E0,4.915352542E0,2.046859860E-1,1.949020326E-1,5.899352431E-1
4.916599542E0,2.991529083E0,-1.292502228E1,-3.270548859E0,4.925334542E0,5.820345879E-2,3.304117024E-1,4.319777489E-1
4.926581542E0,3.809428253E0,-1.294612839E1,-1.695374451E0,4.935316542E0,-8.475662768E-2,4.568364918E-1,2.556432188E-1
4.936563542E0,4.182302856E0,-1.238434662E1,-3.614982605E-1,4.945299042E0,-1.998048276E-1,6.817108393E-1,1.181059927E-1
4.946546042E0,3.987707520E0,-1.192674820E1,5.908213806E-1,4.955281042E0,-2.290380895E-1,5.150824189E-1,8.056458086E-3
4.956529042E0,3.486399994E0,-1.177092224E1,1.147364044E0,4.965264042E0,-1.442148387E-1,3.183800280E-1,-9.174755216E-2
4.966511042E0,2.909649353E0,-1.149519562E1,1.477577362E0,4.975246042E0,-5.922165513E-2,-3.692000732E-2,-9.013367444E-2
4.976493042E0,2.038311310E0,-1.137499557E1,1.412762146E0,4.985228042E0,-1.198422685E-1,-4.323138893E-1,-5.924533680E-2
4.986475042E0,1.101708984E0,-1.157737473E1,2.206411743E-1,4.995210042E0,-4.032172561E-1,-6.968856454E-1,-7.311564870E-3
4.996458042E0,1.841171265E-1,-1.232536926E1,-1.337917786E0,5.005193042E0,-8.690076470E-1,-8.772503734E-1,1.564974897E-2
5.006440042E0,-3.155438232E-1,-1.374172394E1,-2.690654755E0,5.015175042E0,-1.325761080E0,-8.492538929E-1,-6.233346462E-2
5.016422042E0,-1.496887207E-2,-1.473266327E1,-2.680176544E0,5.025157042E0,-1.675270557E0,-5.955641270E-1,-2.756941020E-1
5.026404042E0,3.791615295E-1,-1.480810638E1,-1.545985107E0,5.035139042E0,-1.911166787E0,-2.584571838E-1,-5.359871984E-1
5.036387042E0,4.299060059E-1,-1.439451645E1,-1.923500061E-1,5.045122042E0,-2.089307547E0,-1.357120723E-1,-7.009072304E-1
5.046369042E0,-1.258882141E-1,-1.386207367E1,8.696914673E-1,5.055104042E0,-2.317257166E0,-2.803518176E-1,-7.446523309E-1
5.056351042E0,-1.077309723E0,-1.362002701E1,1.268462219E0,5.065086042E0,-2.683566332E0,-4.528546333E-1,-7.505580187E-1
5.066333042E0,-1.559906158E0,-1.367166962E1,8.330177307E-1,5.075068042E0,-3.108238935E0,-5.952887535E-1,-6.922105551E-1
5.076315042E0,-1.697470093E0,-1.385638550E1,3.592529297E-1,5.085051042E0,-3.469176054E0,-7.480921149E-1,-5.234232545E-1
5.086298042E0,-2.320773926E0,-1.367930374E1,4.767585754E-1,5.095033042E0,-3.684092760E0,-9.630507231E-1,-3.425434530E-1
5.096280042E0,-3.119363251E0,-1.331271606E1,6.397695923E-1,5.105015042E0,-3.664186478E0,-1.144533992E0,-2.838180959E-1
5.106262042E0,-3.843557281E0,-1.341869568E1,6.939569092E-1,5.114997042E0,-3.439363956E0,-1.115476131E0,-3.228456378E-1
5.116244042E0,-4.919968872E0,-1.412747177E1,7.923023987E-1,5.124980042E0,-3.136210680E0,-7.292350531E-1,-2.634260952E-1
5.126227042E0,-6.709647217E0,-1.487965759E1,1.013242950E0,5.134962042E0,-2.880873442E0,6.612608675E-3,-1.228631288E-1
5.136209042E0,-8.290210419E0,-1.515628235E1,1.244512024E0,5.144944042E0,-2.721463203E0,8.071843386E-1,1.836251281E-2
5.146191042E0,-8.287516022E0,-1.430799637E1,1.673220520E0,5.154926042E0,-2.656257868E0,1.352117181E0,1.524939537E-1
5.156173042E0,-6.784641266E0,-1.273372009E1,1.818867645E0,5.164908042E0,-2.617067575E0,1.512803197E0,2.617121339E-1
5.166156042E0,-4.826263733E0,-1.123264160E1,1.857038269E0,5.174891042E0,-2.570070267E0,1.437311172E0,3.387680352E-1
5.176138042E0,-3.038980408E0,-1.014664993E1,2.217339020E0,5.184873042E0,-2.520718813E0,1.122878194E0,3.786110878E-1
5.186120042E0,-1.617985382E0,-9.728419647E0,2.423460388E0,5.194855042E0,-2.489936113E0,6.200656295E-1,3.454890847E-1
5.196102042E0,-1.059796143E-1,-9.870025177E0,2.087708588E0,5.204837042E0,-2.419930935E0,1.054363400E-1,2.758414745E-1
5.206085042E0,1.314416656E0,-1.016371445E1,1.609004059E0,5.214820042E0,-2.337175131E0,-2.930881381E-1,2.223822474E-1
5.216067042E0,1.882784729E0,-1.033136581E1,1.210682373E0,5.224802042E0,-2.314859390E0,-7.629829049E-1,1.465518326E-1
5.226049042E0,1.782193909E0,-1.028840515E1,1.956431580E-1,5.234784042E0,-2.318645000E0,-1.063521504E0,5.604908988E-2
5.236031042E0,1.773961029E0,-9.824968872E0,-6.289920044E-1,5.244766042E0,-2.273475647E0,-1.184787512E0,-7.080093771E-2
5.246013042E0,1.688039703E0,-9.156159668E0,-7.843688965E-1,5.254749042E0,-2.226162195E0,-1.098150373E0,-2.336830497E-1
5.255996042E0,1.962119751E0,-8.575816498E0,-8.379574585E-1,5.264731042E0,-2.150944710E0,-8.625851274E-1,-3.626441956E-1
5.265978042E0,1.764979706E0,-8.121361542E0,-9.632469177E-1,5.274713042E0,-2.023407698E0,-7.257327437E-1,-4.272439778E-1
5.275960042E0,1.093027039E0,-7.617658997E0,-7.036866760E-1,5.284695042E0,-1.854593635E0,-7.731665969E-1,-4.738419056E-1
5.285942042E0,4.683760071E-1,-7.160210266E0,4.340972900E-3,5.294677042E0,-1.728262424E0,-1.033890843E0,-5.440910459E-1
5.295925042E0,2.390528870E-1,-6.978637848E0,2.374063110E-1,5.304660042E0,-1.597912550E0,-1.206738591E0,-7.142405510E-1
5.305907042E0,2.377056885E-1,-6.542893982E0,7.330256653E-1,5.314642042E0,-1.405542612E0,-1.333816290E0,-7.860438824E-1
5.315889042E0,-9.864486694E-2,-6.054309998E0,1.462309113E0,5.324624042E0,-1.191650510E0,-1.416693807E0,-7.785159349E-1
5.325871042E0,-8.684939575E-1,-5.792504425E0,1.831142120E0,5.334606042E0,-1.003927708E0,-1.411840558E0,-7.487822175E-1
5.335854042E0,-1.392703857E0,-5.324128418E0,1.713935852E0,5.344589042E0,-8.318717480E-1,-1.315406680E0,-7.388972640E-1
5.345836042E0,-1.704655151E0,-4.785398712E0,1.287023621E0,5.354571042E0,-6.483058929E-1,-1.136042714E0,-7.217174768E-1
5.355818042E0,-1.982327728E0,-4.114044800E0,9.138496399E-1,5.364553042E0,-4.489461482E-1,-8.828411698E-1,-6.815248132E-1
5.365800042E0,-2.451901245E0,-3.679648132E0,4.493655396E-1,5.374535042E0,-1.951101571E-1,-5.877903700E-1,-6.532513499E-1
5.375783042E0,-2.506088562E0,-3.337759094E0,-1.002914429E-2,5.384518042E0,1.088514924E-1,-1.631098688E-1,-5.915431976E-1
5.385765042E0,-2.597997437E0,-3.064427490E0,-1.556762695E-2,5.394500042E0,4.177800119E-1,1.859040409E-1,-5.491936207E-1
5.395747042E0,-2.440225525E0,-2.992726593E0,-7.200027466E-2,5.404482042E0,7.364830375E-1,4.026994407E-1,-5.250918865E-1
5.405729042E0,-2.025138702E0,-2.885549469E0,-2.046244812E-1,5.414464042E0,1.062867999E0,4.779124558E-1,-5.035018921E-1
5.415711042E0,-1.716480560E0,-2.886297913E0,-6.706054688E-2,5.424447042E0,1.400483012E0,4.078612030E-1,-4.732275009E-1
5.425694042E0,-1.527124329E0,-2.958447876E0,8.771759033E-2,5.434429042E0,1.740765691E0,2.726290822E-1,-4.249864519E-1
5.435676042E0,-1.477577362E0,-2.997666321E0,1.317260742E-2,5.444411042E0,2.066398621E0,1.335582733E-1,-3.734585941E-1
5.445658042E0,-1.482068024E0,-3.111280060E0,-4.547543335E-1,5.454393042E0,2.370437384E0,1.528382115E-2,-3.192712665E-1
5.455640042E0,-1.504371643E0,-3.398383026E0,-1.291813660E0,5.464375042E0,2.644370556E0,-1.161889881E-1,-2.509615123E-1
5.465623042E0,-1.413061523E0,-3.910468140E0,-2.413880310E0,5.474358042E0,2.881798744E0,-2.132367045E-1,-1.400472522E-1
5.475605042E0,-1.256487122E0,-4.783452759E0,-3.553011475E0,5.484340042E0,3.072106600E0,-3.763454556E-1,3.719558939E-2
5.485587042E0,-1.089584198E0,-6.211483154E0,-4.613256683E0,5.494322042E0,3.064571381E0,-4.822649658E-1,2.757777870E-1
5.495569042E0,-8.568182373E-1,-8.499175873E0,-5.917494507E0,5.504304042E0,2.727667570E0,-2.494812310E-1,5.280467272E-1
5.505552042E0,-5.691165161E-1,-1.194815369E1,-7.634124756E0,5.514287042E0,2.012084007E0,4.170883000E-1,5.928813815E-1
5.515534042E0,1.498384094E-1,-1.626128448E1,-9.375303955E0,5.524269042E0,8.434176445E-1,1.240974426E0,4.402461946E-1
5.525516042E0,9.833052063E-1,-2.112392258E1,-1.258403137E1,5.534251042E0,-5.285398960E-1,1.456556201E0,6.408135593E-2
5.535498042E0,1.270258484E0,-2.625270721E1,-1.751717285E1,5.544233042E0,-1.699709535E0,7.541587204E-2,-4.610112607E-1
5.545481042E0,7.652087402E-1,-2.856015884E1,-2.113020950E1,5.554216042E0,-2.205896378E0,-2.313779831E0,-8.368765116E-1
5.555463042E0,4.706213379E-1,-2.483395752E1,-2.035377411E1,5.564198042E0,-2.070322514E0,-3.219933987E0,-9.689240456E-1
5.565445042E0,7.270381165E-1,-1.736928040E1,-1.454016357E1,5.574180042E0,-1.593516350E0,-2.645976782E0,-9.457820058E-1
5.575427042E0,9.264234924E-1,-1.076291840E1,-8.126151581E0,5.584162042E0,-9.140301943E-1,-1.400517821E0,-8.719381094E-1
5.585409042E0,1.511706390E0,-6.162834320E0,-3.901486816E0,5.594145042E0,-2.036077380E-1,-7.795850933E-2,-6.596421003E-1
5.595392042E0,1.488953705E0,-3.506158905E0,-1.460363159E0,5.604127042E0,4.829249382E-1,9.516115785E-1,-2.522861063E-1
5.605374042E0,-3.186872864E-1,-4.239034882E0,3.749702454E-1,5.614109042E0,1.045012593E0,1.509088397E0,1.944186836E-1
5.615356042E0,-1.773362274E0,-7.161258087E0,1.810185699E0,5.624091042E0,1.332125783E0,2.338755369E0,4.414489567E-1
5.625338042E0,-2.193987579E0,-1.127739853E1,2.869383087E0,5.634074042E0,1.310449004E0,3.393042564E0,3.562435210E-1
5.635321042E0,-2.134710846E0,-1.541195068E1,4.856051788E0,5.644056042E0,1.097851515E0,3.390185118E0,-1.937340945E-3
5.645303042E0,-1.454824677E0,-1.753438705E1,7.443720703E0,5.654038042E0,7.739461064E-1,1.861497879E0,-3.086693287E-1
5.655285042E0,-2.356100464E0,-1.671304504E1,6.190227356E0,5.664020042E0,7.942616194E-2,-6.782092899E-2,-6.115476489E-1
5.665267042E0,-3.072810059E0,-1.384366196E1,5.996530151E-1,5.674002042E0,-6.877583265E-1,-1.033640265E0,-6.316385269E-1
5.675250042E0,-2.310894470E0,-1.061936691E1,-4.313430176E0,5.683985042E0,-8.663284183E-1,-1.233683109E0,-4.116605520E-1
5.685232042E0,-2.938988342E0,-8.359665985E0,-3.917653198E0,5.693967042E0,-6.518997550E-1,-1.142467618E0,-1.830121726E-1
5.695214042E0,-3.106190643E0,-6.086343384E0,-3.543730774E0,5.703949042E0,-2.347992063E-1,-2.410832345E-1,8.011921495E-2
5.705196042E0,-3.338357849E0,-3.659739532E0,-2.380200348E0,5.713931042E0,4.064920843E-1,1.057640791E0,3.324047029E-1
5.715179042E0,-4.170627136E0,-1.928739166E0,7.520361328E-1,5.723914042E0,1.095138311E0,2.212644339E0,5.177595615E-1
5.725161042E0,-4.032165070E0,-1.710343323E0,2.625540161E0,5.733896042E0,1.626401901E0,3.256736040E0,7.738949060E-1
5.735143042E0,-4.153412933E0,-2.626737671E0,3.832779694E0,5.743878042E0,1.837005138E0,3.980202913E0,1.162182927E0
5.745125042E0,-4.814438324E0,-4.708608398E0,4.789290619E0,5.753860042E0,1.750970960E0,4.102523804E0,1.633560777E0
5.755107042E0,-5.387895813E0,-7.292984161E0,5.334007874E0,5.763843042E0,1.450190067E0,3.352041721E0,1.960660100E0
5.765090042E0,-5.118306427E0,-1.019709503E1,5.471721497E0,5.773825042E0,1.121593237E0,1.832329154E0,1.998318791E0
5.775072042E0,-3.749403076E0,-1.331136887E1,4.988376617E0,5.783807042E0,1.126778007E0,-6.869684160E-2,1.879252076E0
5.785054042E0,-1.694775696E0,-1.540865753E1,4.538861389E0,5.793789042E0,1.452984095E0,-1.821740985E0,1.610763907E0
5.795036042E0,1.174607391E0,-1.642309799E1,3.894601135E0,5.803772042E0,1.898926258E0,-2.750602961E0,1.094362974E0
5.805019042E0,4.961582336E0,-1.649869080E1,2.296224976E0,5.813754042E0,2.114703178E0,-2.411089897E0,3.614755869E-1
5.815001042E0,8.857081604E0,-1.630035324E1,-8.683442688E-1,5.823736042E0,1.910824418E0,-1.028191924E0,-2.321658880E-1
5.824983042E0,1.108459946E1,-1.512754211E1,-4.229604492E0,5.833718042E0,1.517658234E0,2.661365569E-1,-4.854458570E-1
5.834965042E0,9.091344452E0,-1.317724777E1,-5.015170898E0,5.843700042E0,1.194038987E0,9.165030718E-1,-7.058366537E-1
5.844948042E0,6.270310822E0,-1.158455978E1,-4.041146393E0,5.853683042E0,1.107701182E0,1.046707273E0,-9.139770269E-1
5.854930042E0,3.840713196E0,-1.031879196E1,-2.353705444E0,5.863665042E0,1.257261157E0,9.478168488E-1,-1.023214579E0
5.864912042E0,1.192420349E0,-9.195976868E0,-4.649331665E-1,5.873647042E0,1.497781038E0,7.265768647E-1,-1.026099086E0
5.874894042E0,-1.038240967E0,-8.041727142E0,8.613088989E-1,5.883629042E0,1.700113773E0,3.956804276E-1,-9.161894917E-1
5.884877042E0,-2.952610016E0,-6.929839325E0,1.268761597E0,5.893612042E0,1.777003765E0,6.839390844E-2,-7.238442898E-1
5.894859042E0,-4.527784424E0,-6.167025604E0,1.065035248E0,5.903594042E0,1.734083533E0,-1.282296628E-1,-4.300778210E-1
5.904841042E0,-5.483247528E0,-5.968238983E0,5.860313416E-1,5.913576042E0,1.600089192E0,-1.510329694E-1,-9.230324626E-2
5.914823042E0,-5.828878784E0,-6.170618134E0,2.998265076E-1,5.923558042E0,1.417499423E0,-5.083740130E-2,1.692917049E-1
5.924806042E0,-5.223088531E0,-6.572831726E0,-1.276844788E-1,5.933541042E0,1.236146092E0,1.975132972E-1,4.076264799E-1
5.934788042E0,-4.210893402E0,-7.234006805E0,-3.887416077E-1,5.943523042E0,1.108370185E0,4.647026360E-1,5.806742311E-1
5.944769542E0,-3.145558777E0,-7.912396088E0,-6.753955078E-1,5.953504542E0,1.041800261E0,7.318872213E-1,6.745719314E-1
5.954751542E0,-1.776505737E0,-8.376281433E0,-5.313949585E-1,5.963486542E0,1.011998534E0,9.624477029E-1,6.675055027E-1
5.964733542E0,-4.234693909E-1,-8.676107941E0,-2.597099304E-1,5.973469542E0,1.032442808E0,1.117333412E0,6.010300517E-1
5.974716542E0,7.771838379E-1,-8.853788452E0,2.164498901E-1,5.983451542E0,1.070563197E0,1.104516983E0,5.315887928E-1
5.984698542E0,1.347348175E0,-8.887468414E0,8.125103760E-1,5.993433542E0,1.134616494E0,9.514349699E-1,5.029435754E-1
5.994680542E0,1.598974915E0,-8.828491058E0,1.284179535E0,6.003415542E0,1.198562384E0,7.309111357E-1,4.546680748E-1
6.004662542E0,1.519041138E0,-8.560697937E0,1.797911224E0,6.013398542E0,1.279872417E0,6.265541315E-1,4.229511619E-1
6.014645542E0,1.543440399E0,-8.257578278E0,1.789528656E0,6.023380542E0,1.449209809E0,5.531682968E-1,4.412117898E-1
6.024627542E0,9.068142700E-1,-7.950866089E0,1.827549591E0,6.033362542E0,1.709537029E0,4.291054904E-1,4.633975029E-1
6.034609542E0,3.342549133E-1,-7.907306671E0,1.787133636E0,6.043344542E0,1.963655710E0,2.449399382E-1,4.835524261E-1
6.044591542E0,-3.014730835E-1,-8.184829559E0,1.327140198E0,6.053326542E0,2.077140808E0,8.492335677E-2,4.928111434E-1
6.054574542E0,-7.253915405E-1,-8.865164795E0,2.579136658E-1,6.063309542E0,2.007326603E0,8.888639510E-2,5.449448228E-1
6.064556542E0,-8.446934509E-1,-9.626331940E0,-9.048683167E-1,6.073291542E0,1.754275918E0,2.670745254E-1,6.604918838E-1
6.074538542E0,-7.686515808E-1,-1.006072861E1,-1.742227020E0,6.083273542E0,1.371956229E0,4.846127331E-1,8.131431341E-1
6.084520542E0,-2.363584900E-1,-1.015114059E1,-2.361788635E0,6.093255542E0,9.356729388E-1,5.870211124E-1,9.458010197E-1
6.094503542E0,9.461824036E-1,-1.051248917E1,-2.718047791E0,6.103238542E0,5.720870495E-1,3.889109492E-1,9.846550226E-1
6.104485542E0,2.340383148E0,-1.165446442E1,-2.793041840E0,6.113220542E0,3.876259029E-1,3.119755723E-2,8.396152258E-1
6.114467542E0,3.714974670E0,-1.292756699E1,-2.414179688E0,6.123202542E0,3.725916445E-1,-1.599969119E-1,5.066422224E-1
6.124449542E0,4.860392761E0,-1.358559860E1,-1.632205811E0,6.133184542E0,3.830802441E-1,2.458386309E-2,8.612161875E-2
6.134431542E0,5.738466797E0,-1.302112244E1,-8.331674194E-1,6.143167542E0,2.840523720E-1,4.649010599E-1,-2.493318617E-1
6.144414542E0,5.378465424E0,-1.190713898E1,-4.007167053E-1,6.153149542E0,1.193997711E-1,7.863307595E-1,-3.690806329E-1
6.154396542E0,3.581452332E0,-1.134550690E1,-1.002914429E-1,6.163131542E0,1.535818074E-2,8.009027243E-1,-3.593322635E-1
6.164378542E0,1.603914642E0,-1.130434250E1,7.125183105E-2,6.173113542E0,2.146986872E-2,4.171729386E-1,-2.631583214E-1
6.174360542E0,2.586621094E-1,-1.130988098E1,9.744735718E-2,6.183096542E0,5.513806269E-2,-3.695246577E-2,-1.386767775E-1
6.184343542E0,-5.764512634E-1,-1.138442596E1,-4.760101318E-1,6.193078542E0,-1.133151278E-1,-3.961122036E-1,3.292267397E-2
6.194325542E0,-1.352287903E0,-1.162512543E1,-1.744023285E0,6.203060542E0,-5.699188709E-1,-5.399253368E-1,1.987822354E-1
6.204307542E0,-1.589245148E0,-1.221729401E1,-3.519032135E0,6.213042542E0,-1.184245825E0,-4.969661534E-1,2.781092823E-1
6.214289542E0,-8.806187439E-1,-1.342842545E1,-4.313879242E0,6.223024542E0,-1.714613438E0,-3.943255246E-1,1.878229976E-1
6.224272542E0,5.855822754E-1,-1.466215988E1,-3.322640533E0,6.233007542E0,-1.957378149E0,-2.019392997E-1,-1.139123589E-1
6.234254542E0,2.111359406E0,-1.497949997E1,-1.058898010E0,6.242989542E0,-1.993089437E0,1.421402488E-2,-4.852886796E-1
6.244236542E0,2.396965485E0,-1.444166840E1,1.135838013E0,6.252971542E0,-2.058061361E0,-2.871719748E-2,-7.032194138E-1
6.254218542E0,1.332379303E0,-1.387824005E1,1.851050720E0,6.262953542E0,-2.351922274E0,-3.022757471E-1,-7.728276849E-1
6.264201542E0,6.210585022E-1,-1.340252930E1,9.611512756E-1,6.272936542E0,-2.782179594E0,-6.142408848E-1,-7.739555836E-1
6.274183542E0,7.171586609E-1,-1.280512161E1,4.475692749E-2,6.282918542E0,-3.227452517E0,-8.360595703E-1,-7.588860393E-1
6.284165542E0,8.346643066E-1,-1.237371872E1,5.119354248E-2,6.292900542E0,-3.546980619E0,-1.035615802E0,-6.770101190E-1
6.294147542E0,2.113604736E-1,-1.233435059E1,5.557942200E-1,6.302882542E0,-3.634749889E0,-1.288715124E0,-6.276501417E-1
6.304130542E0,-7.490423584E-1,-1.251083359E1,1.247056732E0,6.312865542E0,-3.481496811E0,-1.514746666E0,-6.888275146E-1
6.314112542E0,-1.738185425E0,-1.313473618E1,1.703307953E0,6.322847542E0,-3.220058203E0,-1.509644866E0,-7.356858253E-1
6.324094542E0,-3.463198242E0,-1.460527817E1,1.635199585E0,6.332829542E0,-3.010529757E0,-1.133440137E0,-5.956200957E-1
6.334076542E0,-6.076613617E0,-1.655512344E1,1.062789917E0,6.342811542E0,-2.899774551E0,-3.486499190E-1,-3.630770743E-1
6.344058542E0,-8.364755402E0,-1.802147415E1,7.424560547E-1,6.352794542E0,-2.803700924E0,6.813662648E-1,-2.565983236E-1
6.354041542E0,-8.854985962E0,-1.795576080E1,1.161285095E0,6.362776542E0,-2.661425114E0,1.479174256E0,-1.658156365E-1
6.364023542E0,-7.637567596E0,-1.587538696E1,1.885928192E0,6.372758542E0,-2.535092354E0,1.911042333E0,-3.929737583E-2
6.374005542E0,-6.021079102E0,-1.333022964E1,2.243684235E0,6.382740542E0,-2.424210072E0,1.951991796E0,7.318317890E-2
6.383987542E0,-4.209695892E0,-1.125704086E1,2.411485291E0,6.392722542E0,-2.302628756E0,1.683656454E0,1.632928401E-1
6.393970542E0,-2.900368652E0,-9.841434631E0,2.709216156E0,6.402705542E0,-2.197977304E0,1.094216108E0,1.529996693E-1
6.403952542E0,-1.322350159E0,-9.136999512E0,2.620750122E0,6.412687542E0,-2.081768513E0,3.660993874E-1,9.837636352E-2
6.413934542E0,5.008584595E-1,-9.053473206E0,2.118694153E0,6.422669542E0,-2.023401976E0,-3.490611315E-1,6.643468887E-2
6.423916542E0,1.509461060E0,-9.138795776E0,1.290017395E0,6.432651542E0,-1.989729166E0,-8.181329966E-1,4.772927146E-3
6.433899542E0,1.713935852E0,-9.060209198E0,7.170089722E-2,6.442634542E0,-1.933366656E0,-9.874453545E-1,-6.816881150E-2
6.443881542E0,1.554068298E0,-8.912765808E0,-4.537065125E-1,6.452616542E0,-1.895108461E0,-1.198847055E0,-2.008504122E-1
6.453863542E0,1.669777679E0,-8.888965302E0,-9.484277344E-1,6.462598542E0,-1.884348869E0,-1.273211837E0,-3.936959505E-1
6.463845542E0,2.239942017E0,-8.877888336E0,-1.376687164E0,6.472580542E0,-1.855668426E0,-9.544026852E-1,-6.107339859E-1
6.473828542E0,2.732717285E0,-8.638386383E0,-1.498683472E0,6.482563542E0,-1.807766676E0,-7.738701701E-1,-7.611019015E-1
6.483810542E0,2.636018372E0,-8.205785980E0,-1.438807983E0,6.492545542E0,-1.751925826E0,-9.030784965E-1,-8.393319845E-1
6.493792542E0,1.858086090E0,-7.915689240E0,-1.186582489E0,6.502527542E0,-1.685016870E0,-1.175173640E0,-9.289698005E-1
6.503774542E0,1.346450043E0,-7.140750732E0,-4.537065125E-1,6.512509542E0,-1.535544753E0,-1.493384123E0,-8.800211549E-1
6.513757542E0,5.231620789E-1,-6.840325470E0,5.769003296E-1,6.522492542E0,-1.381058574E0,-1.797092557E0,-8.224239349E-1
6.523739542E0,3.203338623E-2,-6.329737244E0,1.369801483E0,6.532474542E0,-1.268514276E0,-2.092491388E0,-8.011391759E-1
6.533721542E0,-2.035766602E-2,-5.543721771E0,1.519190826E0,6.542456542E0,-1.139886856E0,-2.281722784E0,-7.878983021E-1
6.543703542E0,-3.553610229E-1,-4.738546143E0,1.791025543E0,6.552438542E0,-1.009600401E0,-2.402684450E0,-7.559112906E-1
6.553685542E0,-8.364605713E-1,-4.098177795E0,1.870210876E0,6.562421542E0,-8.462228179E-1,-2.281120062E0,-6.736637354E-1
6.563668542E0,-1.588796082E0,-3.533402252E0,1.770518188E0,6.572403542E0,-6.296886802E-1,-2.026477337E0,-5.700901747E-1
6.573650542E0,-2.054926758E0,-3.204536133E0,1.492995300E0,6.582385542E0,-3.617856801E-1,-1.641639113E0,-5.138927698E-1
6.583632542E0,-2.112107849E0,-2.734962616E0,1.018032990E0,6.592367542E0,-3.764704615E-2,-1.160961747E0,-4.833936989E-1
6.593614542E0,-2.145488434E0,-2.560575256E0,7.159611511E-1,6.602349542E0,2.993299961E-1,-6.349160075E-1,-4.381091297E-1
6.603597542E0,-2.353106689E0,-2.507435760E0,5.096900940E-1,6.612332542E0,6.128876805E-1,-2.849300504E-1,-3.967632651E-1
6.613579542E0,-2.342179413E0,-2.545007629E0,2.686912537E-1,6.622314542E0,9.008645415E-1,-7.327292114E-2,-3.525513411E-1
6.623561542E0,-2.363734589E0,-2.548749847E0,2.336640930E-1,6.632296542E0,1.197514057E0,4.461269826E-2,-3.441509306E-1
6.633543542E0,-2.348915405E0,-2.605930939E0,4.745132446E-1,6.642278542E0,1.519708514E0,6.737739593E-2,-3.451683819E-1
6.643526542E0,-2.343376923E0,-2.752476196E0,6.477030945E-1,6.652261542E0,1.845394492E0,-7.835864089E-3,-3.317415416E-1
6.653508542E0,-2.572400665E0,-3.069816284E0,4.462220764E-1,6.662243542E0,2.153850555E0,-1.479399949E-1,-2.947986424E-1
6.663490542E0,-2.818039856E0,-3.598067780E0,-2.255809021E-1,6.672225542E0,2.431798220E0,-2.874731123E-1,-2.429705858E-1
6.673472542E0,-2.915187836E0,-4.348906403E0,-1.247505798E0,6.682207542E0,2.683257103E0,-4.315056503E-1,-1.789974272E-1
6.683455542E0,-2.874322815E0,-5.434299316E0,-2.310295715E0,6.692190542E0,2.845627308E0,-5.557290912E-1,-6.516940147E-2
6.693437542E0,-2.891387329E0,-6.998396759E0,-3.544778595E0,6.702172542E0,2.766519070E0,-6.587840915E-1,1.312858164E-1
6.703419542E0,-2.912643127E0,-9.439969482E0,-5.581293640E0,6.712154542E0,2.364378929E0,-3.646315336E-1,3.445775807E-1
6.713401542E0,-2.499951324E0,-1.288206161E1,-7.949069824E0,6.722136542E0,1.607033968E0,3.842035234E-1,4.692433774E-1
6.723383542E0,-1.312770081E0,-1.723246490E1,-9.838141479E0,6.732119542E0,4.162022769E-1,1.339084625E0,3.312309086E-1
6.733366542E0,8.012837219E-1,-2.214105743E1,-1.394709686E1,6.742101542E0,-7.853360176E-1,1.792442918E0,-5.934008956E-2
6.743348542E0,2.531086578E0,-2.699306763E1,-1.871602982E1,6.752083542E0,-1.745554328E0,3.167379797E-1,-5.535559654E-1
6.753330542E0,2.652633820E0,-2.761966461E1,-2.022114990E1,6.762065542E0,-2.166322470E0,-2.035820246E0,-9.117547274E-1
6.763312542E0,2.254012756E0,-2.330847977E1,-1.916449722E1,6.772048542E0,-1.984334350E0,-2.943379402E0,-1.007767797E0
6.773295542E0,1.200952606E0,-1.679507446E1,-1.355790619E1,6.782030542E0,-1.504798889E0,-2.362357378E0,-9.743420482E-1
6.783277542E0,8.143066406E-1,-1.025487488E1,-7.086264038E0,6.792012542E0,-8.597694039E-1,-1.294589281E0,-9.147135615E-1
6.793259542E0,1.453327789E0,-5.372178497E0,-3.391048279E0,6.801994542E0,-8.659658581E-2,-1.725782454E-1,-8.323835135E-1
6.803241542E0,2.042502594E0,-1.826352081E0,-1.197210388E0,6.811976542E0,7.313014269E-1,7.583177686E-1,-5.693910122E-1
6.813224542E0,1.126108246E0,-1.182391205E0,3.363505554E-1,6.821959542E0,1.401672125E0,1.246692538E0,-1.433323026E-1
6.823206542E0,-8.291258240E-1,-3.828289032E0,1.232985992E0,6.831941542E0,1.772843242E0,1.727547765E0,1.884530932E-1
6.833188542E0,-1.515298920E0,-7.863298187E0,1.421893158E0,6.841923542E0,1.945201397E0,2.664939642E0,2.734315395E-1
6.843170542E0,-1.320553894E0,-1.271261398E1,3.038381653E0,6.851905542E0,1.991927624E0,3.466346979E0,1.282551736E-1
6.853153542E0,-8.431965637E-1,-1.714459763E1,7.519014130E0,6.861888542E0,1.744654417E0,3.105859041E0,-2.717749774E-2
6.863135542E0,-1.902693329E0,-1.991563522E1,9.388476563E0,6.871870542E0,1.040202975E0,1.712540150E0,-2.727742195E-1
6.873117542E0,-3.633244629E0,-2.002939865E1,4.927303619E0,6.881852542E0,-3.873964846E-1,-1.411904693E-1,-5.698317885E-1
6.883099542E0,-2.785707092E0,-1.749277359E1,-3.967948608E0,6.891834542E0,-1.455940366E0,-1.647444844E0,-5.302412510E-1
6.893082542E0,-2.727478180E0,-1.409678558E1,-9.511371002E0,6.901817542E0,-1.541616559E0,-2.506638288E0,-3.101638556E-1
6.903064542E0,-3.947441254E0,-1.095781311E1,-7.019203491E0,6.911799542E0,-1.033998370E0,-2.027042389E0,-1.047683582E-1
6.913046542E0,-4.508025513E0,-7.662715302E0,-3.253484344E0,6.921781542E0,-1.558844447E-1,-4.569960833E-1,1.150019094E-1
6.923028542E0,-5.573958893E0,-3.957021332E0,1.152303772E0,6.931763542E0,7.869043946E-1,1.020087361E0,2.679184675E-1
6.933010542E0,-5.807772675E0,-9.551637268E-1,3.169808350E0,6.941746542E0,1.579745173E0,2.243316889E0,3.827869594E-1
6.942993208E0,-4.922812958E0,3.608995056E-1,3.483256531E0,6.951728208E0,1.953740001E0,3.233669519E0,6.189219952E-1
6.952975208E0,-5.235812073E0,-6.795867920E-1,3.525917816E0,6.961710208E0,1.834300160E0,3.925594330E0,1.021421432E0
6.962957208E0,-6.111790466E0,-2.801873474E0,3.030298462E0,6.971692208E0,1.504681587E0,4.187378407E0,1.487081766E0
6.972939208E0,-6.361471252E0,-5.047803040E0,3.362308044E0,6.981675208E0,1.211170077E0,3.873343229E0,1.883665681E0
6.982922208E0,-5.661676483E0,-7.727231140E0,5.068609772E0,6.991657208E0,9.584636688E-1,2.804766178E0,2.056538820E0
6.992904208E0,-4.005520477E0,-1.093476105E1,6.363267517E0,7.001639208E0,9.504788518E-1,1.305840254E0,2.028785944E0
7.002886208E0,-1.781595154E0,-1.368858444E1,6.669530640E0,7.011621208E0,1.370219350E0,-3.886617720E-1,1.864934683E0
7.012868208E0,1.109792175E0,-1.558633804E1,6.441255341E0,7.021604208E0,2.067223787E0,-1.893728256E0,1.506091952E0
7.022851208E0,4.551584930E0,-1.675331131E1,5.145998840E0,7.031586208E0,2.746319294E0,-2.481279135E0,8.650567532E-1
7.032833208E0,8.168962555E0,-1.730820740E1,2.816842346E0,7.041568208E0,2.905376434E0,-1.717881918E0,9.795628488E-3
7.042815208E0,1.141451340E1,-1.751013748E1,-1.208137665E0,7.051550208E0,2.270759344E0,-1.444917172E-1,-5.704712272E-1
7.052797208E0,1.201925583E1,-1.583961136E1,-6.202950897E0,7.061532208E0,1.464531898E0,1.074425101E0,-7.740338445E-1
7.062780208E0,8.318800964E0,-1.329969315E1,-7.825277252E0,7.071515208E0,9.646475315E-1,1.553860664E0,-9.201849699E-1
7.072762208E0,5.082081757E0,-1.129820526E1,-5.768853607E0,7.081497208E0,8.161659241E-1,1.387502074E0,-1.047191262E0
7.082744208E0,2.633323975E0,-9.794282684E0,-3.479514313E0,7.091479208E0,8.988158107E-1,1.000239253E0,-1.060879588E0
7.092726208E0,3.876937866E-2,-8.549022217E0,-1.285975800E0,7.101461208E0,1.066887021E0,7.385978699E-1,-9.956585765E-1
7.102709208E0,-2.211950226E0,-7.333998871E0,3.635939026E-1,7.111444208E0,1.276004076E0,5.588195920E-1,-8.366079330E-1
7.112691208E0,-3.792663116E0,-6.404132538E0,1.342558136E0,7.121426208E0,1.401049495E0,3.832794130E-1,-5.919309855E-1
7.122673208E0,-4.903353424E0,-6.237828369E0,1.683099976E0,7.131408208E0,1.401064396E0,2.317138463E-1,-3.099794686E-1
7.132655208E0,-5.342240753E0,-6.443800049E0,1.403182068E0,7.141390208E0,1.307358146E0,1.421725452E-1,-3.847865760E-2
7.142637208E0,-5.096751251E0,-6.678511963E0,8.574169922E-1,7.151373208E0,1.180858850E0,2.170270830E-1,1.839954257E-1
7.152620208E0,-4.268523560E0,-7.098538513E0,3.977229309E-1,7.161355208E0,1.091855168E0,4.349370301E-1,4.022926986E-1
7.162602208E0,-3.392245789E0,-7.705975342E0,2.442919922E-1,7.171337208E0,1.048402667E0,6.757687926E-1,5.568290353E-1
7.172584208E0,-2.467917938E0,-8.319699097E0,1.511856079E-1,7.181319208E0,1.023439646E0,8.733913302E-1,6.292982101E-1
7.182566208E0,-1.241518250E0,-8.693022766E0,2.978805542E-2,7.191302208E0,9.863233566E-1,9.744537473E-1,6.103202701E-1
7.192549208E0,4.311035156E-2,-8.796457672E0,-5.284011841E-2,7.201284208E0,9.658085108E-1,1.004522443E0,5.610722899E-1
7.202531208E0,1.031205597E0,-8.703201599E0,4.370910645E-2,7.211266208E0,9.656020999E-1,9.369841814E-1,5.387957692E-1
7.212513208E0,1.341061249E0,-8.563242645E0,2.975811768E-1,7.221248208E0,9.744024873E-1,7.892119884E-1,5.335764885E-1
7.222495208E0,1.524280243E0,-8.261919250E0,5.086422729E-1,7.231231208E0,1.000954509E0,6.335630417E-1,5.477468967E-1
7.232478208E0,1.538949738E0,-7.789651337E0,7.331753540E-1,7.241213208E0,1.048149705E0,5.193144679E-1,5.651119351E-1
7.242460208E0,1.334624634E0,-7.511230316E0,9.057664490E-1,7.251195208E0,1.161573172E0,3.923770487E-1,5.697572827E-1
7.252442208E0,8.599617004E-1,-7.403604126E0,1.006656647E0,7.261177208E0,1.318485260E0,1.787638366E-1,5.535617471E-1
7.262424208E0,5.122348022E-1,-7.351362762E0,9.050180054E-1,7.271159208E0,1.450229406E0,7.162781898E-3,5.338171124E-1
7.272407208E0,1.817221069E-1,-7.566465454E0,4.822970581E-1,7.281142208E0,1.490808725E0,-2.386011556E-2,5.378066301E-1
7.282389208E0,-1.185534668E-1,-8.083340607E0,-9.026229858E-2,7.291124208E0,1.444169283E0,5.954556167E-2,5.753063560E-1
7.292371208E0,-2.793191528E-1,-8.606352997E0,-6.168672180E-1,7.301106208E0,1.332924128E0,1.821101159E-1,6.356956959E-1
7.302353208E0,-7.229965210E-2,-9.079818420E0,-8.692424011E-1,7.311088208E0,1.204048991E0,3.135765493E-1,7.044257522E-1
7.312336208E0,5.523513794E-1,-9.921218719E0,-6.927593994E-1,7.321071208E0,1.062877178E0,3.752129674E-1,7.176268101E-1
7.322318208E0,1.341061249E0,-1.112800919E1,-3.796105957E-1,7.331053208E0,9.209448695E-1,3.113503754E-1,6.567909122E-1
7.332300208E0,2.380499725E0,-1.221923996E1,-3.100053406E-1,7.341035208E0,8.132943511E-1,1.657487154E-1,5.137336850E-1
7.342282208E0,3.151845703E0,-1.312186295E1,-3.315605164E-1,7.351017208E0,7.483177185E-1,1.157164425E-1,2.792570293E-1
7.352264208E0,3.780987396E0,-1.344638809E1,-3.511697388E-1,7.361000208E0,6.545968652E-1,2.832558751E-1,4.315771163E-2
7.362247208E0,3.783083038E0,-1.321706497E1,-5.081932068E-1,7.370982208E0,4.901722074E-1,5.452118516E-1,-1.062906235E-1
7.372229208E0,2.931204529E0,-1.236593491E1,-9.898915100E-1,7.380964208E0,2.885819077E-1,6.726454496E-1,-1.574980617E-1
7.382211208E0,1.764380951E0,-1.155357422E1,-1.522933044E0,7.390946208E0,1.007131934E-1,5.933913589E-1,-1.366737336E-1
7.392193208E0,4.682263184E-1,-1.127560226E1,-1.469344482E0,7.400929208E0,-2.862573788E-2,3.538174033E-1,-8.653337508E-2
7.402176208E0,-2.857557678E-1,-1.135014725E1,-1.469643860E0,7.410911208E0,-1.164099202E-1,7.004612684E-2,-2.018018439E-2
7.412158208E0,-6.158193970E-1,-1.155462204E1,-1.460961914E0,7.420893208E0,-1.916339546E-1,-1.261308193E-1,2.471151762E-2
7.422140208E0,-3.891906738E-1,-1.210772186E1,-1.427880707E0,7.430875208E0,-4.015586972E-1,-2.927693427E-1,4.773055017E-2
7.432122208E0,2.044747925E-1,-1.296214508E1,-1.881287842E0,7.440858208E0,-8.397764564E-1,-3.569997549E-1,3.749755025E-2
7.442105208E0,1.029409332E0,-1.405696838E1,-2.719694366E0,7.450840208E0,-1.381489277E0,-3.352710307E-1,2.075851709E-2
7.452087208E0,1.891316986E0,-1.527004578E1,-3.052302704E0,7.460822208E0,-1.799136758E0,-2.743607461E-1,-1.932122558E-1
7.462069208E0,2.756817169E0,-1.588406891E1,-2.104473724E0,7.470804208E0,-1.934944153E0,-1.827554852E-1,-5.909383297E-1
7.472051208E0,3.726351013E0,-1.574919937E1,-1.960922241E-1,7.480786208E0,-1.972967148E0,-2.284329534E-1,-9.078656435E-1
7.482034208E0,3.362757111E0,-1.519714737E1,1.066831512E0,7.490769208E0,-2.209677935E0,-4.420381486E-1,-1.010162592E0
7.492016208E0,2.315534821E0,-1.415037415E1,6.207591248E-1,7.500751208E0,-2.662094831E0,-5.594122410E-1,-1.030992031E0
7.501998208E0,1.382674713E0,-1.267968246E1,-4.318519592E-1,7.510733208E0,-3.159027815E0,-5.494757295E-1,-1.003185391E0
7.511980208E0,5.825885010E-1,-1.129012207E1,-5.122348022E-1,7.520715208E0,-3.531096697E0,-5.967745185E-1,-9.468038082E-1
7.521963208E0,-8.800199890E-1,-1.082758392E1,-6.256988525E-2,7.530698208E0,-3.668822765E0,-6.836574674E-1,-9.380646348E-1
7.531945208E0,-2.130369873E0,-1.112486572E1,7.577243042E-1,7.540680208E0,-3.494243383E0,-8.690140247E-1,-9.034400582E-1
7.541927208E0,-3.395688629E0,-1.234378098E1,1.581311646E0,7.550662208E0,-3.164946556E0,-1.051904440E0,-7.319058776E-1
7.551909208E0,-5.565426636E0,-1.422402100E1,2.002835083E0,7.560644208E0,-2.951600790E0,-9.377153516E-1,-5.492931008E-1
7.561892208E0,-7.247179413E0,-1.621024063E1,1.679507446E0,7.570627208E0,-2.881801605E0,-3.061703742E-1,-4.821463227E-1
7.571874208E0,-7.766150208E0,-1.768557266E1,1.283281403E0,7.580609208E0,-2.817013741E0,5.765916109E-1,-5.014410615E-1
7.581856208E0,-7.139104156E0,-1.749831207E1,1.576820984E0,7.590591208E0,-2.684488058E0,1.302528620E0,-3.812057674E-1
7.591838208E0,-5.789510651E0,-1.535402115E1,2.225721588E0,7.600573208E0,-2.544247866E0,1.674935699E0,-2.527569532E-1
7.601820208E0,-4.172124023E0,-1.269360352E1,2.574945374E0,7.610556208E0,-2.422672033E0,1.725142360E0,-1.446118355E-1
7.611803208E0,-2.337838440E0,-1.068343369E1,2.714155884E0,7.620538208E0,-2.275992155E0,1.507034898E0,-4.092855006E-2
7.621785208E0,-1.046024780E0,-9.724827118E0,2.735711060E0,7.630520208E0,-2.147351027E0,9.331228733E-1,3.753323480E-2
7.631767208E0,1.417552185E-1,-9.518705750E0,2.329605560E0,7.640502208E0,-2.103070736E0,-3.175091464E-3,8.026906848E-2
7.641749208E0,1.178798676E0,-9.964478760E0,1.035995636E0,7.650485208E0,-2.117779732E0,-8.661758900E-1,1.743125357E-2
7.651732208E0,2.266436920E0,-1.044318329E1,-3.562591553E-2,7.660467208E0,-2.109739542E0,-1.168487787E0,-1.123179495E-1
7.661714208E0,2.583028564E0,-1.071516769E1,-6.617738342E-1,7.670449208E0,-2.008270979E0,-1.239923835E0,-3.019544780E-1
7.671696208E0,2.356100464E0,-1.072384964E1,-7.144642639E-1,7.680431208E0,-1.923189044E0,-1.164464831E0,-5.610836744E-1
7.681678208E0,2.824925537E0,-1.064047302E1,-5.153782654E-1,7.690414208E0,-1.921106458E0,-8.601686358E-1,-8.349573016E-1
7.691661208E0,3.037782898E0,-1.032597702E1,-1.154998169E0,7.700396208E0,-1.892341971E0,-6.991062164E-1,-9.395076036E-1
7.701643208E0,2.082170105E0,-9.671388245E0,-1.405876465E0,7.710378208E0,-1.858072639E0,-8.079352379E-1,-9.438821077E-1
7.711625208E0,8.695417786E-1,-8.884474640E0,-1.131796417E0,7.720360208E0,-1.812868357E0,-1.015152931E0,-9.208766222E-1
7.721607208E0,-7.289840698E-2,-8.015681305E0,-4.546046448E-1,7.730342208E0,-1.699869633E0,-1.192685127E0,-8.505718112E-1
7.731590208E0,-5.433700562E-1,-6.992858276E0,5.852828979E-1,7.740325208E0,-1.586829901E0,-1.460780382E0,-7.122748494E-1
7.741572208E0,-1.183888092E0,-6.379433899E0,1.200653229E0,7.750307208E0,-1.532646537E0,-1.793759942E0,-6.465576291E-1
7.751554208E0,-1.224753113E0,-5.350174255E0,1.143472137E0,7.760289208E0,-1.465215802E0,-2.130571604E0,-5.993819237E-1
7.761536208E0,-1.160087585E0,-4.450844421E0,1.347198486E0,7.770271208E0,-1.329439640E0,-2.309145451E0,-5.398600101E-1
7.771519208E0,-1.309177551E0,-3.775149536E0,1.707199860E0,7.780254208E0,-1.141196251E0,-2.382155418E0,-5.011879206E-1
7.781501208E0,-1.287322998E0,-3.309318237E0,1.827699280E0,7.790236208E0,-8.856362700E-1,-2.151690245E0,-4.448013306E-1
7.791483208E0,-1.794169006E0,-2.785707092E0,1.810185699E0,7.800218208E0,-5.798150897E-1,-1.787991285E0,-3.756746352E-1
7.801465208E0,-2.079924774E0,-2.671494598E0,1.478924561E0,7.810200208E0,-2.569231093E-1,-1.268592238E0,-2.853796482E-1
7.811448208E0,-2.315534821E0,-2.656226349E0,1.000519409E0,7.820183208E0,5.919138342E-2,-7.595022321E-1,-2.066265196E-1
7.821430208E0,-2.477498016E0,-2.788551178E0,5.062472534E-1,7.830165208E0,3.808658421E-1,-3.783694804E-1,-1.340021193E-1
7.831412208E0,-2.413730621E0,-2.957849121E0,1.261875916E-1,7.840147208E0,7.219227552E-1,-1.467149258E-1,-6.354082376E-2
7.841394208E0,-2.327509918E0,-3.124302979E0,7.828720093E-2,7.850129208E0,1.071512222E0,-7.709804177E-2,-2.542778850E-2
7.851376208E0,-2.214944000E0,-3.266507263E0,1.405577087E-1,7.860112208E0,1.416239023E0,-1.232735068E-1,2.755563334E-2
7.861359208E0,-2.128124542E0,-3.342698822E0,1.901046753E-1,7.870094208E0,1.751717448E0,-2.065825164E-1,8.930261433E-2
7.871341208E0,-2.170935516E0,-3.325185242E0,-1.077758789E-2,7.880076208E0,2.059491873E0,-2.816471756E-1,1.395379752E-1
7.881323208E0,-2.138003998E0,-3.392844543E0,-6.524931335E-1,7.890058208E0,2.332096815E0,-3.984670043E-1,1.787402332E-1
7.891305208E0,-1.912872162E0,-3.721111908E0,-1.595232697E0,7.900041208E0,2.574058771E0,-5.267813206E-1,2.164338678E-1
7.901288208E0,-1.724414063E0,-4.428840179E0,-2.546803894E0,7.910023208E0,2.782033443E0,-6.019884348E-1,2.593916953E-1
7.911270208E0,-1.715881805E0,-5.596412201E0,-3.306174774E0,7.920005208E0,2.868866205E0,-5.686491132E-1,3.124653697E-1
7.921252208E0,-1.839075623E0,-7.253316650E0,-4.251159668E0,7.929987208E0,2.691493988E0,-5.276838541E-1,3.980423212E-1
7.931234208E0,-1.863624573E0,-9.680968323E0,-5.882766724E0,7.939970208E0,2.220260143E0,-3.491024077E-1,4.981322289E-1
7.941217208E0,-1.599274292E0,-1.319835388E1,-7.774233398E0,7.949951958E0,1.416212082E0,8.741553128E-2,5.325474143E-1
7.951198958E0,-1.021176453E0,-1.749876114E1,-1.006731491E1,7.959933958E0,2.612396479E-1,6.748550534E-1,4.442127645E-1
7.961180958E0,-4.150868225E-1,-2.246692978E1,-1.446082855E1,7.969915958E0,-1.116688609E0,4.506350458E-1,7.016194612E-2
7.971162958E0,8.487350464E-1,-2.662438431E1,-1.932451447E1,7.979897958E0,-2.146422386E0,-9.179264307E-1,-5.252549648E-1
7.981145958E0,3.610342255E0,-2.597578308E1,-2.118424713E1,7.989880958E0,-2.325145245E0,-2.272838354E0,-9.860630631E-1
7.991127958E0,5.216651917E0,-2.148257675E1,-1.701616470E1,7.999862958E0,-1.904272437E0,-2.351297617E0,-1.256325245E0
8.001109958E0,4.922962646E0,-1.548050812E1,-9.930948486E0,8.009844958E0,-1.208518744E0,-1.573649049E0,-1.426521778E0
8.011091958E0,4.641847229E0,-9.640402679E0,-4.402944031E0,8.019826958E0,-4.586007893E-1,-5.597267747E-1,-1.430464625E0
8.021074958E0,4.392316132E0,-4.709506531E0,-1.874851227E0,8.029809958E0,2.021201551E-1,2.699017227E-1,-1.219067097E0
8.031056958E0,2.843037872E0,-1.327589264E0,-1.071920929E0,8.039791958E0,8.072852492E-1,8.291522264E-1,-8.211188912E-1
8.041038958E0,3.189866638E-1,-6.797364807E-1,-8.388555908E-1,8.049773958E0,1.393691301E0,1.143071651E0,-3.727949262E-1
8.051020958E0,-1.915566559E0,-2.639311523E0,1.463955688E-1,8.059755958E0,1.829580307E0,1.405943871E0,-4.210276529E-2
8.061003958E0,-2.756218414E0,-5.697302399E0,1.455573120E0,8.069738958E0,2.064530849E0,1.904915333E0,1.565275043E-1
8.070985958E0,-2.863395538E0,-9.808503113E0,2.812501373E0,8.079720958E0,2.176197529E0,2.509626389E0,2.083814740E-1
8.080967958E0,-2.933898926E0,-1.474733276E1,5.844895477E0,8.089702958E0,2.045311213E0,2.487175941E0,1.982239187E-1
8.090949958E0,-3.061733093E0,-1.932631073E1,8.624016266E0,8.099684958E0,1.390730023E0,1.535228610E0,-4.260857590E-3
8.100931958E0,-3.917054443E0,-2.182551361E1,5.884562988E0,8.109667958E0,-5.522610247E-2,-3.065157533E-1,-4.799605608E-1
8.110914958E0,-3.109334106E0,-2.138812317E1,-3.851191406E0,8.119649958E0,-1.346047521E0,-1.212226748E0,-6.606576443E-1
8.120896958E0,-8.840615845E-1,-1.776565613E1,-1.074899734E1,8.129631958E0,-1.679187894E0,-1.214924574E0,-5.238800645E-1
8.130878958E0,-1.592388611E0,-1.330478256E1,-5.746999054E0,8.139613958E0,-1.318748355E0,-1.223816514E0,-3.445506096E-1
8.140860958E0,-2.940335541E0,-9.404343567E0,-2.558329926E0,8.149596958E0,-6.232937574E-1,-6.670020223E-1,-1.426715255E-1
8.150843958E0,-4.206402740E0,-6.003715210E0,-3.323089600E-2,8.159578958E0,2.612667084E-1,4.155452251E-1,4.973502830E-2
8.160825958E0,-6.008205872E0,-2.526446228E0,3.222349091E0,8.169560958E0,1.111125112E0,1.371386051E0,2.094000578E-1
8.170807958E0,-6.387367401E0,-3.622467041E-2,4.147425385E0,8.179542958E0,1.731252193E0,2.291702271E0,4.642968774E-1
8.180789958E0,-6.398893433E0,2.885998535E-1,3.548820190E0,8.189525958E0,1.903000236E0,3.148474216E0,8.746151924E-1
8.190772958E0,-6.895710297E0,-1.486109619E0,3.054098969E0,8.199507958E0,1.728053451E0,3.704791546E0,1.371302962E0
8.200754958E0,-6.824757843E0,-3.747606812E0,2.863694916E0,8.209489958E0,1.451073050E0,3.728573084E0,1.836242676E0
8.210736958E0,-6.200705566E0,-6.122568054E0,4.154161377E0,8.219471958E0,1.072175980E0,3.073623657E0,2.104483843E0
8.220718958E0,-4.903054047E0,-9.271120605E0,5.370980988E0,8.229453958E0,7.809665203E-1,1.787484407E0,2.106082916E0
8.230701958E0,-2.720143433E0,-1.270902145E1,6.039341125E0,8.239436958E0,8.743797541E-1,2.591124475E-1,1.981823325E0
8.240683958E0,-2.966830444E-1,-1.556298660E1,6.600823517E0,8.249418958E0,1.341722608E0,-1.220046639E0,1.730762839E0
8.250665958E0,2.718496857E0,-1.744232849E1,5.975124664E0,8.259400958E0,2.030343294E0,-2.140653849E0,1.264301181E0
8.260647958E0,6.142776031E0,-1.799707489E1,4.136947174E0,8.269382958E0,2.516806126E0,-1.957050323E0,4.916038513E-1
8.270630958E0,9.537716217E0,-1.792956528E1,9.993218994E-1,8.279365958E0,2.369157553E0,-7.211081386E-1,-3.163377941E-1
8.280612958E0,1.206341400E1,-1.647773438E1,-3.612288208E0,8.289347958E0,1.780803680E0,6.283261776E-1,-7.094206214E-1
8.290594958E0,1.001148102E1,-1.344863342E1,-6.820267181E0,8.299329958E0,1.269565582E0,1.425865769E0,-9.057646990E-1
8.300576958E0,5.876629486E0,-1.141840530E1,-6.453978882E0,8.309311958E0,1.069773316E0,1.712697268E0,-1.053602099E0
8.310559958E0,2.988984375E0,-1.026999344E1,-4.112996979E0,8.319294958E0,1.116642356E0,1.611719489E0,-1.089851022E0
8.320541958E0,5.435197449E-1,-9.209149475E0,-1.594484253E0,8.329276958E0,1.258246422E0,1.240334511E0,-9.910446405E-1
8.330523958E0,-1.535656586E0,-8.131240997E0,1.053808594E-1,8.339258958E0,1.414271474E0,7.561157942E-1,-7.872292995E-1
8.340505958E0,-3.041375427E0,-7.287745056E0,9.488768005E-1,8.349240958E0,1.490196586E0,2.801314592E-1,-5.450835228E-1
8.350487958E0,-3.984863434E0,-6.766977997E0,1.148860931E0,8.359223958E0,1.458998203E0,-1.157093495E-1,-2.737034559E-1
8.360470958E0,-4.394411774E0,-6.637646942E0,9.554631042E-1,8.369205958E0,1.370682955E0,-3.169037104E-1,1.862891018E-3
8.370452958E0,-4.308789825E0,-6.734944611E0,6.421646118E-1,8.379187958E0,1.248225212E0,-2.808458507E-1,2.414411306E-1
8.380434958E0,-3.635190582E0,-6.851701813E0,1.390608215E-1,8.389169958E0,1.116670132E0,-7.213763893E-2,3.940170705E-1
8.390416958E0,-2.483485565E0,-7.142397308E0,-5.263055420E-1,8.399151958E0,1.036994457E0,1.991740465E-1,4.631454051E-1
8.400399958E0,-1.299298096E0,-7.589816895E0,-7.881111145E-1,8.409134958E0,1.011084557E0,4.892245233E-1,4.897085726E-1
8.410381958E0,-4.578977966E-1,-8.004754028E0,-5.279521179E-1,8.419116958E0,1.025847077E0,7.417209744E-1,5.033987761E-1
8.420363958E0,3.032693481E-1,-8.312064972E0,-1.637594604E-1,8.429098958E0,1.006602287E0,8.599887490E-1,4.921892583E-1
8.430345958E0,8.773255920E-1,-8.606652374E0,1.176553345E-1,8.439080958E0,9.475829601E-1,8.372604847E-1,4.763002694E-1
8.440328958E0,1.172661438E0,-8.801846466E0,3.091072083E-1,8.449063958E0,8.671781421E-1,6.972261667E-1,4.600453973E-1
8.450310958E0,1.272803192E0,-8.946445770E0,4.602928162E-1,8.459045958E0,8.385072947E-1,5.827560425E-1,4.769552946E-1
8.460292958E0,1.169218597E0,-8.650511169E0,7.559280396E-1,8.469027958E0,8.723121285E-1,5.131138563E-1,4.820078313E-1
8.470274958E0,9.101074219E-1,-8.209228821E0,9.979747009E-1,8.479009958E0,9.818335772E-1,4.830440879E-1,4.808196425E-1
8.480257958E0,4.620890808E-1,-7.728877716E0,1.169517975E0,8.488992958E0,1.139761448E0,3.703343272E-1,4.905391037E-1
8.490239958E0,-8.666976929E-2,-7.347321167E0,1.210382996E0,8.498974958E0,1.323098421E0,1.136349067E-1,5.180874467E-1
8.500221958E0,-6.541397095E-1,-7.362290039E0,1.032403107E0,8.508956958E0,1.521577716E0,-1.644435972E-1,5.450101495E-1
8.510203958E0,-1.069825287E0,-7.400161285E0,9.786648560E-1,8.518938958E0,1.668836236E0,-3.029796183E-1,5.731452107E-1
8.520186958E0,-1.417851562E0,-7.767347717E0,8.565188599E-1,8.528921958E0,1.694317102E0,-2.884635329E-1,6.159275770E-1
8.530168958E0,-1.423988800E0,-8.430917816E0,2.378553772E-1,8.538903958E0,1.600264311E0,-1.168297455E-1,6.910417080E-1
8.540150958E0,-9.967771912E-1,-9.140592041E0,-6.258485413E-1,8.548885958E0,1.394924760E0,1.599600464E-1,7.978301644E-1
8.550132958E0,-2.877017212E-1,-9.729617157E0,-1.142723694E0,8.558867958E0,1.090695143E0,3.685606718E-1,8.847304583E-1
8.560115958E0,6.258485413E-1,-1.058074722E1,-1.399589539E0,8.568850958E0,8.056104183E-1,3.674075305E-1,8.830444217E-1
8.570097958E0,1.713636475E0,-1.172466843E1,-1.422940979E0,8.578832958E0,6.375503540E-1,1.690720767E-1,7.618796229E-1
8.580079958E0,2.867137756E0,-1.270303391E1,-9.720785522E-1,8.588814958E0,5.864621401E-1,-4.636833817E-2,5.226044655E-1
8.590061958E0,3.844904480E0,-1.320299423E1,-5.023553467E-1,8.598796958E0,5.398960710E-1,-1.930978596E-1,1.666518599E-1
8.600043958E0,4.522994385E0,-1.278147079E1,-3.115022278E-1,8.608779958E0,4.464135170E-1,-8.828890324E-2,-1.344153136E-1
8.610026958E0,4.227508850E0,-1.176822784E1,-4.375401306E-1,8.618761958E0,3.156140447E-1,2.103635669E-1,-3.084364533E-1
8.620008958E0,2.659220123E0,-1.122141495E1,-3.302133179E-1,8.628743958E0,2.419512868E-1,4.743712544E-1,-3.828819096E-1
8.629990958E0,8.807684326E-1,-1.127605133E1,-3.092568970E-1,8.638725958E0,2.787984312E-1,5.759148598E-1,-4.227117598E-1
8.639972958E0,-3.734733582E-1,-1.115510284E1,-4.528083801E-1,8.648708958E0,3.018853664E-1,3.954612613E-1,-4.503843784E-1
8.649955958E0,-1.279389496E0,-1.124356888E1,-1.250499573E0,8.658690958E0,2.742676437E-1,1.793886125E-1,-3.988713026E-1
8.659937958E0,-2.176324310E0,-1.107771378E1,-1.943109283E0,8.668672958E0,4.594711959E-2,1.213761866E-1,-2.450606823E-1
8.669919958E0,-3.029100952E0,-1.118863312E1,-2.665207672E0,8.678654958E0,-4.863134623E-1,2.066971809E-1,1.904583769E-3
8.679901958E0,-3.822900238E0,-1.211580505E1,-3.871549072E0,8.688637958E0,-1.237363338E0,2.945010662E-1,2.272594124E-1
8.689884958E0,-3.514092407E0,-1.357766510E1,-4.573888550E0,8.698619958E0,-1.982592106E0,2.956387997E-1,3.202430606E-1
8.699866958E0,-1.629661102E0,-1.495540009E1,-3.888014832E0,8.708601958E0,-2.491760969E0,2.209296674E-1,2.149850875E-1
8.709848958E0,6.411167908E-1,-1.503683075E1,-1.793719940E0,8.718583958E0,-2.769782543E0,4.869797453E-2,-4.498982802E-2
8.719830958E0,2.366578674E0,-1.386955811E1,3.517684937E-1,8.728565958E0,-2.924860001E0,-2.166689783E-1,-3.067029417E-1
8.729813958E0,3.219355316E0,-1.243075012E1,1.357077942E0,8.738548958E0,-3.075388432E0,-5.159073472E-1,-4.224665761E-1
8.739795958E0,3.238365784E0,-1.129850464E1,1.625020752E0,8.748530958E0,-3.346369982E0,-8.142216206E-1,-4.621798992E-1
8.749777958E0,2.177072754E0,-1.109792175E1,1.160686340E0,8.758512958E0,-3.664396524E0,-1.084028602E0,-6.312649846E-1
8.759759958E0,1.477876740E0,-1.187854843E1,3.180885315E-1,8.768494958E0,-3.764330149E0,-1.472724080E0,-9.163033962E-1
8.769742958E0,1.392254791E0,-1.341375595E1,2.897973633E-1,8.778477958E0,-3.610490561E0,-1.769861221E0,-1.030614495E0
8.779724958E0,1.676513672E-1,-1.450693268E1,9.125024414E-1,8.788459958E0,-3.427314997E0,-1.565649271E0,-9.323039055E-1
8.789706958E0,-2.717299347E0,-1.572300385E1,8.003855896E-1,8.798441958E0,-3.209618092E0,-7.298942208E-1,-8.223827481E-1
8.799688958E0,-4.928501129E0,-1.709774506E1,7.171586609E-1,8.808423958E0,-2.922921419E0,5.245414376E-1,-7.451297641E-1
8.809671958E0,-6.052663422E0,-1.786055878E1,1.888921967E0,8.818406958E0,-2.665133476E0,1.637237072E0,-6.209141016E-1
8.819653958E0,-6.274352417E0,-1.773182648E1,2.961142273E0,8.828388958E0,-2.518306017E0,2.221885204E0,-3.831268251E-1
8.829635958E0,-5.713019714E0,-1.663760193E1,3.025059357E0,8.838370958E0,-2.502827644E0,2.217746496E0,-1.998642832E-1
8.839617958E0,-4.261488190E0,-1.473475891E1,2.683469696E0,8.848352958E0,-2.508536816E0,1.799603820E0,-9.036070108E-2
8.849599958E0,-2.351909180E0,-1.283446060E1,2.491119690E0,8.858335958E0,-2.413992882E0,1.233992457E0,-3.547131270E-2
8.859582958E0,-1.111588440E0,-1.151300858E1,2.628533936E0,8.868317958E0,-2.204807758E0,6.441602707E-1,-1.574154943E-2
8.869564958E0,-1.035845947E-1,-1.070588699E1,2.537672882E0,8.878299958E0,-1.969528556E0,1.800634563E-1,-1.863622293E-2
8.879546958E0,8.940907288E-1,-1.068343369E1,2.069895630E0,8.888281958E0,-1.852774501E0,-1.503248364E-1,-7.956109941E-2
8.889528958E0,1.642085266E0,-1.075737991E1,4.191284180E-1,8.898264958E0,-1.772770762E0,-2.394512445E-1,-2.672188878E-1
8.899511958E0,2.383942566E0,-1.036130356E1,-7.819738770E-1,8.908246958E0,-1.769153833E0,-2.038850039E-1,-4.764274955E-1
8.909493958E0,2.624941406E0,-1.004186783E1,-1.435664520E0,8.918228958E0,-1.762111187E0,-3.942751884E-1,-6.232309341E-1
8.919475958E0,1.907483368E0,-9.932295685E0,-1.984573059E0,8.928210958E0,-1.641633749E0,-7.700040936E-1,-7.152578235E-1
8.929457958E0,1.203796692E0,-9.700278168E0,-8.593629456E-1,8.938193958E0,-1.540989757E0,-1.073950171E0,-8.865349889E-1
8.939440958E0,1.558409271E0,-9.180558929E0,-7.768844604E-2,8.948176208E0,-1.482855678E0,-1.303551912E0,-1.063359261E0
8.949423208E0,1.825453949E0,-8.684191132E0,4.490661621E-3,8.958158208E0,-1.450769424E0,-1.304659486E0,-1.179449916E0
8.959405208E0,1.211430817E0,-8.156987457E0,3.185375977E-1,8.968140208E0,-1.427531719E0,-1.347255230E0,-1.099035740E0
8.969387208E0,6.092330933E-2,-7.738158417E0,5.289999390E-1,8.978122208E0,-1.417717099E0,-1.440412283E0,-9.432750940E-1
8.979370208E0,-1.079405365E0,-7.162605286E0,4.909790039E-1,8.988105208E0,-1.403538108E0,-1.678789735E0,-8.398736119E-1
8.989352208E0,-1.309925995E0,-5.983656921E0,4.938230896E-1,8.998087208E0,-1.338866115E0,-1.994761705E0,-7.836714387E-1
8.999334208E0,-1.416204987E0,-4.799918518E0,7.539820862E-1,9.008069208E0,-1.179668307E0,-2.070321321E0,-6.733257174E-1
9.009316208E0,-1.692530365E0,-3.692072296E0,1.171463928E0,9.018051208E0,-9.568690062E-1,-2.024101496E0,-5.775951147E-1
9.019299208E0,-2.058519287E0,-3.047662354E0,1.500479736E0,9.028034208E0,-7.160949707E-1,-1.953017592E0,-5.034980178E-1
9.029281208E0,-1.791175232E0,-2.547252960E0,1.332379303E0,9.038016208E0,-4.718830884E-1,-1.709578514E0,-4.135001600E-1
9.039263208E0,-2.021396484E0,-2.266287231E0,1.206940155E0,9.047998208E0,-2.313104272E-1,-1.456376314E0,-3.080570698E-1
9.049245208E0,-1.931583252E0,-2.301613770E0,9.647438049E-1,9.057980208E0,4.495311901E-2,-1.121327519E0,-2.176998407E-1
9.059228208E0,-1.699865112E0,-2.325114899E0,5.761518860E-1,9.067963208E0,3.841066957E-1,-7.678269744E-1,-1.599920690E-1
9.069210208E0,-1.750459900E0,-2.529140625E0,5.525010681E-1,9.077945208E0,7.669696808E-1,-5.304620862E-1,-1.290012151E-1
9.079192208E0,-1.724713440E0,-2.699636078E0,6.045927429E-1,9.087927208E0,1.153603673E0,-4.184998274E-1,-8.197592199E-2
9.089174208E0,-1.976639557E0,-2.923720093E0,6.328839111E-1,9.097909208E0,1.494688392E0,-3.628525436E-1,-3.777887672E-2
9.099157208E0,-2.291734314E0,-3.115770721E0,4.448748779E-1,9.107892208E0,1.779169917E0,-3.517186642E-1,3.109792620E-2
9.109139208E0,-2.491119690E0,-3.349584503E0,1.543290710E-1,9.117874208E0,2.001638412E0,-3.893616796E-1,1.114728600E-1
9.119121208E0,-2.500101013E0,-3.573967896E0,-4.640350342E-1,9.127856208E0,2.171609402E0,-4.493073225E-1,1.997369379E-1
9.129103208E0,-2.390528870E0,-4.067940674E0,-1.327439575E0,9.137838208E0,2.321716309E0,-4.227334559E-1,3.030563295E-1
9.139085208E0,-2.459984436E0,-5.167104950E0,-2.073637848E0,9.147821208E0,2.441081285E0,-2.988980711E-1,4.280315638E-1
9.149068208E0,-2.736459503E0,-6.872508545E0,-2.646496582E0,9.157803208E0,2.396529436E0,-8.079770207E-2,5.249968767E-1
9.159050208E0,-2.777623901E0,-9.170829163E0,-3.679648132E0,9.167785208E0,2.078769684E0,2.287012935E-1,5.457479954E-1
9.169032208E0,-2.275118866E0,-1.226863724E1,-5.437592468E0,9.177767208E0,1.410305023E0,5.140131712E-1,4.870763719E-1
9.179014208E0,-1.294058990E0,-1.605291779E1,-8.325536957E0,9.187750208E0,5.139992237E-1,5.051182508E-1,3.938800991E-1
9.188997208E0,-6.611750793E-1,-2.003209305E1,-1.229543152E1,9.197732208E0,-5.965964794E-1,-1.990628242E-1,2.481877953E-1
9.198979208E0,-3.308120728E-1,-2.294488586E1,-1.639780060E1,9.207714208E0,-1.975454807E0,-1.805342913E0,-1.314567178E-1
9.208961208E0,1.578018494E0,-2.330743195E1,-2.165157532E1,9.217696208E0,-2.651551962E0,-3.143795013E0,-6.127582192E-1
9.218943208E0,5.016368408E0,-2.119577316E1,-2.237831406E1,9.227679208E0,-2.469470739E0,-2.569584131E0,-9.375618696E-1
9.228926208E0,6.459367676E0,-1.705673035E1,-1.450019669E1,9.237661208E0,-1.701712370E0,-9.134169221E-1,-1.163506866E0
9.238908208E0,7.317383423E0,-1.159084671E1,-5.810167694E0,9.247643208E0,-7.189303041E-1,4.493375123E-1,-1.277913690E0
9.248890208E0,7.812703400E0,-6.203100586E0,-7.813751221E-1,9.257625208E0,1.266607791E-1,1.064410329E0,-1.225152254E0
9.258872208E0,7.148085480E0,-1.544188843E0,5.593867493E-1,9.267607208E0,8.480956554E-1,1.329626799E0,-1.044144154E0
9.268855208E0,4.622836761E0,5.325924683E-1,6.978488159E-1,9.277590208E0,1.564319968E0,1.281494379E0,-7.426254749E-1
9.278837208E0,1.462159424E0,-1.093476105E0,1.100062408E0,9.287572208E0,2.240773916E0,1.192406893E0,-4.704312384E-1
9.288819208E0,-4.575984192E-1,-4.420008545E0,1.943109283E0,9.297554208E0,2.678070545E0,1.190385580E0,-2.009545267E-1
9.298801208E0,-1.441652069E0,-8.794212341E0,2.270628204E0,9.307536208E0,2.850264788E0,1.564994335E0,5.950181931E-2
9.308784208E0,-2.205214233E0,-1.481214798E1,2.916385345E0,9.317519208E0,2.617042065E0,2.233612537E0,2.105589956E-1
9.318766208E0,-2.279459839E0,-2.096510284E1,5.485343170E0,9.327501208E0,1.662259340E0,2.298142672E0,2.433499694E-1
9.328748208E0,-3.090323639E0,-2.479878067E1,5.172194366E0,9.337483208E0,1.150297001E-1,1.175948620E0,-1.508790851E-1
9.338730208E0,-3.300636292E0,-2.548689972E1,-2.076781311E0,9.347465208E0,-1.239666224E0,-2.789208889E-1,-6.346076727E-1
9.348713208E0,-1.278940430E0,-2.244717087E1,-8.483458557E0,9.357448208E0,-1.751127124E0,-1.447807074E0,-7.985870242E-1
9.358695208E0,-1.187929688E0,-1.638283173E1,-5.977369995E0,9.367430208E0,-1.478437781E0,-2.822673559E0,-7.065551281E-1
9.368677208E0,-3.147804108E0,-1.169757477E1,-3.743415527E0,9.377412208E0,-1.007555842E0,-2.912790298E0,-5.515081882E-1
9.378659208E0,-5.027445374E0,-8.319699097E0,-1.785037994E0,9.387394208E0,-2.868451178E-1,-1.668420076E0,-3.122032285E-1
9.388642208E0,-7.568411407E0,-4.282444611E0,2.626288605E0,9.397377208E0,6.316578388E-1,-1.856545955E-1,-9.314794093E-3
9.398624208E0,-9.009614410E0,-7.671546936E-1,5.034181366E0,9.407359208E0,1.354512215E0,1.035922408E0,3.551545143E-1
9.408606208E0,-8.601263580E0,1.231638794E0,3.772006073E0,9.417341208E0,1.684261799E0,2.261966228E0,7.426919341E-1
9.418588208E0,-8.465046844E0,1.103056183E0,2.530188446E0,9.427323208E0,1.653955102E0,3.278253317E0,1.122074962E0
9.428571208E0,-7.831863556E0,-9.184899902E-1,2.333796844E0,9.437306208E0,1.440826893E0,3.939921141E0,1.592740297E0
9.438553208E0,-7.231013031E0,-3.394940186E0,3.428470459E0,9.447288208E0,1.137209773E0,4.038726807E0,2.042578459E0
9.448535208E0,-6.604565735E0,-6.086942139E0,4.801116028E0,9.457270208E0,7.553473711E-1,3.312407255E0,2.283091068E0
9.458517208E0,-5.037175140E0,-8.983867950E0,5.853278046E0,9.467252208E0,5.979223251E-1,1.788747191E0,2.269856215E0
9.468499208E0,-2.805615692E0,-1.231968109E1,6.736890564E0,9.477235208E0,1.025033593E0,-1.013756990E-1,2.157810926E0
9.478482208E0,-1.646575928E-1,-1.518622009E1,7.695796509E0,9.487217208E0,1.887874603E0,-1.948257685E0,1.892813206E0
9.488464208E0,3.099754028E0,-1.718800735E1,7.041507111E0,9.497199208E0,2.805671453E0,-2.824224949E0,1.346750855E0
9.498446208E0,6.677913208E0,-1.850347183E1,4.785548401E0,9.507181208E0,3.219452858E0,-2.268355608E0,4.220445156E-1
9.508428208E0,1.058134598E1,-1.931568283E1,4.409829712E-1,9.517164208E0,2.518794775E0,-3.682342768E-1,-4.540731609E-1
9.518411208E0,1.331436264E1,-1.749352203E1,-6.684200134E0,9.527146208E0,1.572631240E0,1.005862117E0,-8.272193074E-1
9.528393208E0,1.020278320E1,-1.398496811E1,-9.764045563E0,9.537128208E0,9.225655198E-1,1.317619085E0,-1.035996795E0
9.538375208E0,6.670279083E0,-1.135613480E1,-7.509434052E0,9.547110208E0,6.828666329E-1,1.095858455E0,-1.192290068E0
9.548357208E0,3.903881836E0,-9.616302795E0,-4.354744263E0,9.557093208E0,7.877905965E-1,9.200776219E-1,-1.270054460E0
9.558340208E0,1.093625793E0,-8.254434814E0,-9.346563721E-1,9.567075208E0,1.108507395E0,7.673000693E-1,-1.241130710E0
9.568322208E0,-1.267713776E0,-6.946903839E0,1.640588379E0,9.577057208E0,1.449608564E0,5.649487972E-1,-1.087266564E0
9.578304208E0,-3.089575195E0,-5.954018555E0,2.765798492E0,9.587039208E0,1.667851686E0,4.060187936E-1,-8.069846034E-1
9.588286208E0,-4.528532867E0,-5.490582275E0,2.725831604E0,9.597022208E0,1.683724761E0,3.493222594E-1,-4.179044962E-1
9.598269208E0,-5.666616211E0,-5.622008972E0,1.875300293E0,9.607004208E0,1.491636872E0,3.224403262E-1,-7.392155379E-2
9.608251208E0,-5.829627228E0,-5.987249451E0,4.290078735E-1,9.616986208E0,1.184440374E0,2.940888107E-1,1.988692582E-1
9.618233208E0,-5.017565918E0,-6.350543976E0,-6.735992432E-1,9.626968208E0,9.243148565E-1,3.355361223E-1,4.526911378E-1
9.628215208E0,-4.048930206E0,-6.985523529E0,-7.147636414E-1,9.636950208E0,7.886548042E-1,4.732860029E-1,6.488186717E-1
9.638198208E0,-2.816992035E0,-7.688312073E0,-2.080673218E-2,9.646933208E0,7.720065713E-1,5.883542895E-1,7.120985985E-1
9.648180208E0,-1.366358643E0,-8.092920685E0,6.236032104E-1,9.656915208E0,8.370270133E-1,6.085317135E-1,6.766775250E-1
9.658162208E0,7.155120850E-2,-8.528365173E0,1.046922913E0,9.666897208E0,9.245001078E-1,5.534471273E-1,6.514030695E-1
9.668144208E0,5.743556213E-1,-8.968749390E0,1.184786224E0,9.676879208E0,1.009016752E0,3.923549652E-1,5.981518626E-1
9.678127208E0,9.614506531E-1,-9.022337952E0,1.086440735E0,9.686862208E0,1.077265859E0,2.492784858E-1,5.343006849E-1
9.688109208E0,1.360071716E0,-8.887618103E0,1.017583923E0,9.696844208E0,1.134214044E0,2.019224465E-1,5.018121600E-1
9.698091208E0,1.337169342E0,-8.715326385E0,7.685018921E-1,9.706826208E0,1.243926406E0,1.831942946E-1,5.160089135E-1
9.708073208E0,9.434880066E-1,-8.568481750E0,6.177653503E-1,9.716808208E0,1.394581318E0,1.392150819E-1,5.473259091E-1
9.718056208E0,4.824467468E-1,-8.542136536E0,4.053570557E-1,9.726791208E0,1.533815026E0,1.095285639E-1,5.728278160E-1
9.728038208E0,9.460327148E-2,-8.850794678E0,-1.332229614E-2,9.736773208E0,1.588774204E0,1.514848024E-1,6.256616116E-1
9.738020208E0,-2.203417969E-1,-9.668993225E0,-6.969506836E-1,9.746755208E0,1.556902528E0,2.748978138E-1,6.938723922E-1
9.748002208E0,-1.637594604E-1,-1.053584061E1,-1.224004669E0,9.756737208E0,1.419890523E0,4.135427773E-1,7.931990027E-1
9.757984208E0,2.992277527E-1,-1.087174210E1,-1.441951447E0,9.766720208E0,1.171255469E0,4.890721738E-1,8.713771701E-1
9.767967208E0,1.175505524E0,-1.068597839E1,-1.473835144E0,9.776702208E0,8.453313112E-1,4.579643011E-1,9.201062322E-1
9.777949208E0,2.214794312E0,-1.070244415E1,-1.441352692E0,9.786684208E0,5.893818140E-1,2.176028192E-1,8.702470660E-1
9.787931208E0,3.212769012E0,-1.117471207E1,-1.212328949E0,9.796666208E0,5.014774799E-1,-2.030620873E-1,6.702785492E-1
9.797913208E0,4.022285614E0,-1.199081497E1,-7.011419678E-1,9.806649208E0,5.318705440E-1,-4.058668613E-1,3.589342535E-1
9.807896208E0,4.337979126E0,-1.269539978E1,-2.393522644E-1,9.816631208E0,5.448688269E-1,-2.476894855E-1,4.250134900E-2
9.817878208E0,3.917952576E0,-1.269510040E1,-1.856140137E-1,9.826613208E0,4.284676909E-1,1.253152490E-1,-1.500926018E-1
9.827860208E0,2.787653046E0,-1.198228271E1,-5.700146484E-1,9.836595208E0,2.065692544E-1,4.127883315E-1,-1.665745825E-1
9.837842208E0,1.260229340E0,-1.129640900E1,-9.581575012E-1,9.846578208E0,-3.537386283E-2,4.435979128E-1,-1.061946005E-1
9.847825208E0,1.737886047E-1,-1.101634140E1,-1.048868866E0,9.856560208E0,-1.820963323E-1,2.048313767E-1,-1.114090998E-2
9.857807208E0,-2.737806702E-1,-1.095601685E1,-7.427554321E-1,9.866542208E0,-2.133216411E-1,-4.290518910E-2,5.349853635E-2
9.867789208E0,-2.718347168E-1,-1.117276611E1,-3.932322693E-1,9.876524208E0,-2.285358906E-1,-2.295211107E-1,5.775544047E-2
9.877771208E0,7.664062500E-2,-1.158201508E1,-4.894821167E-2,9.886507208E0,-3.252656460E-1,-3.886148930E-1,2.398096398E-2
9.887754208E0,4.207749939E-1,-1.236803055E1,-2.616558838E-1,9.896489208E0,-5.820190310E-1,-6.189743876E-1,-4.299117997E-2
9.897736208E0,7.542814636E-1,-1.320973022E1,-9.379495239E-1,9.906471208E0,-8.775612116E-1,-6.466882825E-1,-1.705294251E-1
9.907718208E0,1.055455170E0,-1.339294922E1,-1.132844238E0,9.916453208E0,-1.139150023E0,-4.626427889E-1,-3.708773255E-1
9.917700208E0,1.490749969E0,-1.335792206E1,-9.427395630E-1,9.926436208E0,-1.290685773E0,-2.090976089E-1,-5.814580321E-1
9.927683208E0,1.402283936E0,-1.320763458E1,-1.434017944E-1,9.936418208E0,-1.368336558E0,-1.650699675E-1,-7.192643285E-1
9.937665208E0,8.349636841E-1,-1.353560257E1,5.468128967E-1,9.946400208E0,-1.487866402E0,-4.221986830E-1,-7.554766536E-1
9.947647792E0,6.267466736E-1,-1.376507538E1,4.481680298E-1,9.956382792E0,-1.789521694E0,-8.317587376E-1,-6.863927841E-1
9.957629792E0,5.664221191E-1,-1.327948517E1,-1.535806274E-1,9.966364792E0,-2.331730366E0,-1.112363100E0,-6.283118725E-1
9.967612792E0,8.211923218E-1,-1.260962814E1,-1.151555328E0,9.976347792E0,-2.910870314E0,-1.129470706E0,-5.586304665E-1
9.977594792E0,1.227447510E0,-1.172721313E1,-1.288819885E0,9.986329792E0,-3.370574713E0,-1.122242808E0,-4.563643038E-1
9.987576792E0,6.102809143E-1,-1.105735611E1,-4.379891968E-1,9.996311792E0,-3.589766502E0,-1.174366117E0,-4.417505562E-1
9.997558792E0,-3.981719971E-1,-1.063418610E1,6.358776855E-1,1.000629379E1,-3.541091919E0,-1.264108777E0,-5.373713374E-1
1.000754179E1,-1.491199036E0,-1.074884766E1,1.610650635E0,1.001627679E1,-3.337493420E0,-1.323409677E0,-6.367734671E-1
1.001752379E1,-3.072510681E0,-1.170191574E1,1.993704071E0,1.002625879E1,-3.155159950E0,-1.298064709E0,-5.879657269E-1
1.002750579E1,-5.468128967E0,-1.348979782E1,1.330583038E0,1.003624079E1,-3.063449144E0,-9.194422364E-1,-4.046523869E-1
1.003748779E1,-7.946674805E0,-1.564950668E1,3.625460815E-1,1.004622279E1,-2.973652601E0,-1.080119684E-1,-2.519786656E-1
1.004747079E1,-9.358239441E0,-1.721540039E1,5.792953491E-1,1.005620579E1,-2.844414949E0,8.470013142E-1,-1.483443528E-1
1.005745279E1,-9.049431610E0,-1.752974670E1,1.558109894E0,1.006618779E1,-2.693047285E0,1.546960354E0,-2.884725109E-2
1.006743479E1,-7.353009338E0,-1.590457626E1,2.225272522E0,1.007616979E1,-2.563380241E0,1.858471513E0,6.982219219E-2
1.007741679E1,-4.972808990E0,-1.324969711E1,2.424208832E0,1.008615179E1,-2.420359135E0,1.785496116E0,1.270764321E-1
1.008739979E1,-2.758613434E0,-1.091979218E1,2.550097046E0,1.009613479E1,-2.237076521E0,1.410772204E0,1.284823716E-1
1.009738179E1,-9.419911194E-1,-9.485175476E0,2.583627319E0,1.010611679E1,-2.072339773E0,8.788585663E-1,5.776212364E-2
1.010736379E1,9.535171509E-1,-9.082363129E0,2.159858551E0,1.011609879E1,-1.990176201E0,2.656689286E-1,4.889004305E-2
1.011734579E1,1.745819550E0,-9.382339325E0,1.131796417E0,1.012608079E1,-1.987872839E0,-4.072903097E-1,1.735845348E-3
1.012732879E1,1.817221069E0,-9.593699799E0,4.071533203E-2,1.013606379E1,-1.967742682E0,-1.010416865E0,-5.461288616E-2
