"time_acc","acc_x","acc_y","acc_z","time_gyro","gyro_x","gyro_y","gyro_z"
1.064570830E-2,3.079096985E0,-1.282383270E1,-4.505630493E0,1.944708405E-3,2.269476354E-1,3.619405925E-1,1.896130145E-1
2.059170837E-2,3.602558441E0,-1.415980453E1,-3.390449524E0,1.188970823E-2,1.176552102E-1,4.161300659E-1,1.297166198E-1
3.053770843E-2,3.337160339E0,-1.558708649E1,-2.517315216E0,2.183570829E-2,-8.670111746E-2,4.442980587E-1,9.313145280E-2
4.048370826E-2,3.412154388E0,-1.636861130E1,-1.665137329E0,3.178170836E-2,-3.096891046E-1,5.299437046E-1,7.070478052E-2
5.042870832E-2,2.953508148E0,-1.717139191E1,-8.713380432E-1,4.172770842E-2,-4.409360886E-1,4.150501490E-1,7.942861877E-3
6.037470838E-2,2.702480164E0,-1.816098404E1,-1.055904236E0,5.167270824E-2,-4.891377985E-1,4.705776572E-1,-6.840985268E-2
7.032070844E-2,1.819466400E0,-1.751881943E1,-1.976040802E0,6.161870831E-2,-4.919416010E-1,6.961894631E-1,-5.636277795E-2
8.026670828E-2,1.363065491E0,-1.523920990E1,-3.018323364E0,7.156470837E-2,-4.327475727E-1,7.973123789E-1,4.094924778E-2
9.021270834E-2,2.849474487E0,-1.276335846E1,-4.153862000E0,8.151070843E-2,-5.695099235E-1,7.927964926E-1,1.512776874E-2
1.001577084E-1,4.034111023E0,-1.166045197E1,-3.895199890E0,9.145670827E-2,-9.373956919E-1,1.037611246E0,-2.776578069E-1
1.101037082E-1,3.749852142E0,-1.204066132E1,-1.894759827E0,1.014017083E-1,-1.319822550E0,1.330320597E0,-7.328048348E-1
1.200497083E-1,3.553909607E0,-1.238120316E1,-5.189707947E-1,1.113477084E-1,-1.455928206E0,1.409058213E0,-1.103704333E0
1.299957084E-1,5.016817474E0,-1.254062164E1,5.846841431E-1,1.212937082E-1,-1.320928812E0,1.161446571E0,-1.400595903E0
1.399417084E-1,6.525530090E0,-1.234542755E1,1.285526733E0,1.312397083E-1,-1.140787363E0,9.194309115E-1,-1.675370932E0
1.498867082E-1,8.719966736E0,-1.065933380E1,2.073937225E0,1.411857083E-1,-9.875437021E-1,7.948378325E-1,-1.949976921E0
1.598327083E-1,9.043444061E0,-8.740773468E0,2.982996826E0,1.511307084E-1,-6.760727763E-1,8.192747831E-1,-2.482050657E0
1.697787084E-1,7.065906372E0,-9.118737488E0,2.040406952E0,1.610767082E-1,-2.945361137E-1,7.237562537E-1,-3.171221495E0
1.797247084E-1,1.098116455E0,-1.036579422E1,3.192860413E-1,1.710227083E-1,3.073465265E-2,3.787753880E-1,-3.318679810E0
1.896697083E-1,-4.302652588E0,-8.039781189E0,-1.138682098E0,1.809687084E-1,2.795556784E-1,-5.042282864E-2,-2.527507544E0
1.996157083E-1,-4.474195862E0,-5.778733063E0,-1.427132263E0,1.909137084E-1,3.724209368E-1,-2.256985754E-1,-1.139499545E0
2.095617084E-1,-1.218017120E0,-5.184468842E0,-4.035607910E-1,2.008597082E-1,4.441462457E-1,-2.535669506E-1,6.296723336E-2
2.195077084E-1,1.349892883E0,-6.286327515E0,1.255738678E0,2.108057083E-1,5.881301165E-1,-3.379863799E-1,7.612258792E-1
2.294537083E-1,2.956352234E0,-7.425009613E0,2.293829956E0,2.207517084E-1,7.062722445E-1,-2.414124012E-1,9.901120663E-1
2.393987083E-1,3.228636017E0,-7.863298187E0,2.649939423E0,2.306977084E-1,7.573348880E-1,7.374942303E-2,9.990344048E-1
2.493447084E-1,2.350711670E0,-7.370822296E0,2.113455048E0,2.406427083E-1,7.368336320E-1,5.523133278E-1,9.766374826E-1
2.592907082E-1,1.146016846E0,-6.476282501E0,3.195854187E-1,2.505887083E-1,6.827992797E-1,7.849203944E-1,9.526638389E-1
2.692367083E-1,-3.116519165E-1,-5.450465698E0,-8.569679260E-1,2.605347084E-1,6.456085443E-1,6.221389174E-1,7.812103033E-1
2.791817083E-1,-9.837542725E-1,-5.496120758E0,-9.907896423E-1,2.704807082E-1,6.058601737E-1,3.790437579E-1,5.197542906E-1
2.891277084E-1,-4.796026611E-1,-5.433401184E0,-6.724017334E-1,2.804257083E-1,5.898812413E-1,1.309319586E-1,2.775872052E-1
2.990737082E-1,1.627116394E-1,-4.856051788E0,-4.146377563E-2,2.903717083E-1,6.407939196E-1,-1.887466013E-1,-1.816771738E-2
3.090197083E-1,7.324269104E-1,-5.794151001E0,2.312241669E0,3.003177084E-1,7.034522295E-1,-2.669961154E-1,-2.529048622E-1
3.189657084E-1,1.568737793E0,-7.496261444E0,3.695515137E0,3.102637082E-1,6.665028334E-1,4.177879989E-1,-2.094240785E-1
3.289107084E-1,2.859952698E0,-7.359445953E0,2.580483856E0,3.202097083E-1,6.431040168E-1,9.569591284E-1,9.864057414E-3
3.388567083E-1,3.660937042E0,-6.939868469E0,8.370593262E-1,3.301547084E-1,7.006338239E-1,8.998340368E-1,2.509378493E-1
3.488027083E-1,3.796854401E0,-6.241570587E0,1.299298096E-1,3.401007084E-1,8.249805570E-1,5.951175690E-1,4.326437414E-1
3.587487084E-1,3.841012573E0,-5.235363007E0,-8.442443848E-2,3.500467082E-1,1.019819021E0,5.214837790E-1,4.261616170E-1
3.686937084E-1,3.825744324E0,-3.482957153E0,-1.912423096E0,3.599927083E-1,1.185423374E0,6.062332988E-1,5.245619640E-2
3.786397083E-1,4.137096863E0,-4.148622894E0,-4.926255798E0,3.699377084E-1,9.868618846E-1,3.214525580E-1,-3.994388282E-1
3.885857083E-1,4.565356293E0,-5.997278595E0,-5.406906281E0,3.798837084E-1,2.659101486E-1,-4.512221552E-3,-2.978101969E-1
3.985317084E-1,4.941823425E0,-7.151378632E0,-3.654799805E0,3.898297083E-1,-5.998513699E-1,2.380996346E-1,3.366104066E-1
4.084777082E-1,5.459147644E0,-7.081324310E0,-2.735411682E0,3.997757083E-1,-1.291864157E0,5.043798089E-1,8.821080327E-1
4.184227083E-1,6.015690308E0,-7.820936279E0,-1.488504639E0,4.097217084E-1,-1.635348916E0,7.468289733E-1,1.094189644E0
4.283687084E-1,5.985303497E0,-8.709488525E0,-5.852828979E-2,4.196667084E-1,-1.635370970E0,1.163036108E0,1.280813575E0
4.383147084E-1,6.120023346E0,-9.220076752E0,1.682052155E0,4.296127083E-1,-1.358324647E0,1.532219172E0,1.532813430E0
4.482607082E-1,5.832321625E0,-9.514664154E0,3.614234161E0,4.395587083E-1,-6.725441217E-1,1.568044543E0,1.712467194E0
4.582067083E-1,4.165986786E0,-9.111402740E0,2.680775299E0,4.495047084E-1,3.604175895E-2,1.483842254E0,1.999375105E0
4.681517084E-1,3.021017761E0,-8.396788788E0,1.576222229E-1,4.594507082E-1,4.149765670E-1,1.281671405E0,2.342969418E0
4.780977084E-1,2.906805267E0,-8.578959961E0,-2.638413391E0,4.693957083E-1,4.982049465E-1,9.400978088E-1,2.390236378E0
4.880437083E-1,2.929258575E0,-9.139544220E0,-4.060905304E0,4.793417084E-1,2.805506587E-1,4.172902405E-1,2.344659567E0
4.979897083E-1,3.465892639E0,-9.494007111E0,-3.415297852E0,4.892877084E-1,2.288009040E-2,1.395489872E-1,2.195958138E0
5.079347084E-1,4.156257019E0,-9.829459534E0,-2.618355103E0,4.992337083E-1,7.647541165E-2,1.370341629E-1,1.890620947E0
5.178807084E-1,3.996239777E0,-9.522747345E0,-1.148112488E0,5.091787083E-1,2.238646448E-1,-1.106893122E-1,1.519737840E0
5.278267083E-1,3.454516296E0,-9.058412933E0,-8.502319336E-2,5.191247084E-1,3.882271945E-1,-2.791747153E-1,1.109860659E0
5.377727083E-1,2.899919586E0,-9.323960724E0,-2.362088013E-1,5.290707084E-1,3.427246809E-1,-3.999456763E-1,7.000780106E-1
5.477177084E-1,2.302811279E0,-9.808203735E0,-3.927832031E-1,5.390167083E-1,1.736602783E-1,-5.448359847E-1,2.707854509E-1
5.576637082E-1,1.449735260E0,-1.132410141E1,3.594026184E-1,5.489617083E-1,1.200616881E-1,-5.394581556E-1,-1.603239402E-2
5.676097083E-1,1.503473511E0,-1.163560364E1,7.349716187E-1,5.589077084E-1,2.427037209E-1,-4.547645748E-1,-9.673032910E-3
5.775557084E-1,2.329156494E0,-1.086785019E1,6.608757019E-1,5.688537082E-1,3.816534281E-1,-3.962819576E-1,1.004539579E-1
5.875017084E-1,2.875969391E0,-1.017104919E1,6.087840271E-1,5.787997083E-1,5.319446921E-1,-2.995703220E-1,2.032399923E-1
5.974467082E-1,3.287912750E0,-9.987381134E0,-6.930587769E-2,5.887457083E-1,6.919704676E-1,-2.390745431E-1,2.728638649E-1
6.073927083E-1,4.000730438E0,-1.108175537E1,-1.077010345E0,5.986907084E-1,7.635613084E-1,-2.675868869E-1,3.608762622E-1
6.173387084E-1,4.236190796E0,-1.091664871E1,-1.520388336E0,6.086367082E-1,8.159059286E-1,-2.993158102E-1,4.221663475E-1
6.272847084E-1,4.345463562E0,-1.037971527E1,-1.380429382E0,6.185827083E-1,8.152974248E-1,-2.122088522E-1,5.288462043E-1
6.372297083E-1,4.222269745E0,-1.017179764E1,-1.412762146E0,6.285287084E-1,8.288989067E-1,3.342610598E-2,6.158995628E-1
6.471757083E-1,3.455264740E0,-9.949809265E0,-1.564546509E0,6.384737084E-1,8.641508818E-1,2.231281251E-1,6.543244123E-1
6.571217084E-1,2.717149658E0,-1.058553726E1,-7.090754700E-1,6.484197082E-1,8.736998439E-1,4.105515182E-1,7.569874525E-1
6.670677084E-1,2.916984100E0,-1.195743439E1,4.357438660E-1,6.583657083E-1,9.836585522E-1,9.972000718E-1,8.731961250E-1
6.770137083E-1,2.840044098E0,-1.124536514E1,-1.103954315E0,6.683117084E-1,1.066302299E0,1.575516582E0,9.126758575E-1
6.869587083E-1,2.514920197E0,-1.044812302E1,-2.723436584E0,6.782577084E-1,7.814000249E-1,1.679998279E0,7.913100123E-1
6.969047084E-1,2.445913696E0,-1.133622620E1,-2.773582306E0,6.882027083E-1,3.487557471E-1,1.369414687E0,6.838148236E-1
7.068507082E-1,2.874173126E0,-1.330433350E1,-2.613864441E0,6.981487083E-1,-3.981332481E-2,1.220655560E0,4.848303497E-1
7.167967083E-1,3.627855835E0,-1.465572327E1,-2.058070221E0,7.080947084E-1,-6.275280118E-1,1.166087031E0,2.622744143E-1
7.267417083E-1,3.660487976E0,-1.369487137E1,-1.311572571E0,7.180407082E-1,-1.158252358E0,8.951351643E-1,-2.344948985E-2
7.366877084E-1,2.697241058E0,-1.260334122E1,6.179150391E-1,7.279857083E-1,-1.649596810E0,3.358942270E-2,-4.317708910E-1
7.466337082E-1,1.220561829E0,-1.456605972E1,3.221450958E0,7.379317083E-1,-1.800917387E0,-7.740709186E-1,-8.036081195E-1
7.565797083E-1,-4.514611816E-1,-1.569291641E1,2.143542480E0,7.478777084E-1,-1.693772197E0,-1.198431611E0,-8.638817668E-1
7.665247084E-1,-3.107537842E-1,-1.423958862E1,1.164428558E0,7.578237082E-1,-1.767100215E0,-1.167180538E0,-6.521285176E-1
7.764707084E-1,1.103505249E0,-1.242820541E1,9.761201477E-1,7.677687083E-1,-1.892442942E0,-9.653319120E-1,-5.871330500E-1
7.864167083E-1,1.187031555E0,-1.178424454E1,2.562670898E-1,7.777147084E-1,-1.901238322E0,-1.008348346E0,-9.000222087E-1
7.963627083E-1,-1.959425354E-1,-1.203482346E1,-7.086264038E-1,7.876607084E-1,-2.071830511E0,-1.304093361E0,-1.079307795E0
8.063087084E-1,-1.406475220E0,-1.162587387E1,3.528163147E-1,7.976067082E-1,-2.187139034E0,-1.592478752E0,-1.076147437E0
8.162537084E-1,-2.179916840E0,-1.088326813E1,2.016007690E0,8.075527083E-1,-1.788008571E0,-1.351469398E0,-9.912567735E-1
8.261997083E-1,-2.136656799E0,-9.428144073E0,2.574196930E0,8.174977084E-1,-1.172178984E0,-3.972273767E-1,-8.280486465E-1
8.361457083E-1,-1.335822144E0,-7.489525452E0,1.351689148E0,8.274437084E-1,-6.260587573E-1,6.997407079E-1,-7.073175311E-1
8.460917084E-1,-1.724414062E-1,-7.257208557E0,-9.931846619E-1,8.373897083E-1,-3.181792498E-1,1.295862198E0,-7.072768211E-1
8.560367082E-1,3.583547974E-1,-9.603579254E0,-3.726351013E0,8.473357083E-1,-2.580208480E-1,1.037811399E0,-7.449167967E-1
8.659827083E-1,1.360670471E-1,-1.296124695E1,-4.577930145E0,8.572807084E-1,-4.254902601E-1,4.018988311E-1,-6.952469945E-1
8.759287084E-1,5.810916138E-1,-1.352931564E1,-3.554658051E0,8.672267084E-1,-6.454894543E-1,-7.377149910E-2,-6.568812728E-1
8.858747084E-1,1.979783020E0,-1.227267883E1,-2.821632385E0,8.771727083E-1,-7.979559302E-1,-4.680019021E-1,-7.530373335E-1
8.958197082E-1,2.308200073E0,-1.122156464E1,-2.783611450E0,8.871187083E-1,-9.504147768E-1,-9.332741499E-1,-9.332302809E-1
9.057657083E-1,1.946552124E0,-1.039378601E1,-2.096839600E0,8.970637084E-1,-1.192638874E0,-1.494677067E0,-1.321174860E0
9.157117084E-1,1.476828918E0,-9.400152283E0,-1.056353302E0,9.070097082E-1,-1.143830538E0,-1.863917351E0,-1.450936079E0
9.256577084E-1,1.700314178E0,-8.365653534E0,-1.125958557E0,9.169557083E-1,-8.689105511E-1,-1.985689402E0,-1.262266278E0
9.356037083E-1,2.406994629E0,-7.671247559E0,-1.571432190E0,9.269017084E-1,-6.734719872E-1,-1.958021164E0,-1.011271715E0
9.455487083E-1,3.065774689E0,-6.841223602E0,-1.593436432E0,9.368477084E-1,-5.348398089E-1,-1.785926700E0,-6.619147062E-1
9.554947084E-1,3.552861786E0,-6.279292145E0,-1.350491638E0,9.467927082E-1,-4.600418210E-1,-1.533863306E0,-2.700606287E-1
9.654407084E-1,3.431015167E0,-6.367608490E0,-4.650828552E-1,9.567387083E-1,-4.483036697E-1,-1.323037028E0,-1.516389251E-1
9.753872917E-1,2.222727814E0,-5.513634338E0,4.213737488E-1,9.666847084E-1,-3.557554781E-1,-1.250376940E0,-2.140168846E-1
9.853322916E-1,7.219487000E-1,-4.426894226E0,1.329535217E0,9.766312917E-1,-2.426126897E-1,-1.293591261E0,-1.763328910E-1
9.952782916E-1,2.754272461E-2,-2.939287720E0,2.018851776E0,9.865762917E-1,-1.450876147E-1,-1.246334314E0,-1.176188216E-1
1.005224292E0,-8.155041504E-1,-1.494192810E0,1.476679230E0,9.965222916E-1,1.697808504E-1,-9.368273020E-1,-2.593897879E-1
1.015170292E0,-1.592687988E0,-1.354383545E0,-3.388952637E-1,1.006468292E0,4.169529676E-1,-6.706870198E-1,-8.083950728E-2
1.025115292E0,-1.437311096E0,-2.863994293E0,-1.664388885E0,1.016414292E0,3.464886546E-1,-5.069987774E-1,2.583329380E-1
1.035061292E0,-1.009051666E0,-5.068909149E0,-2.120640106E0,1.026359292E0,1.016776934E-1,-6.458639503E-1,4.541669190E-1
1.045007292E0,1.478924561E-1,-6.802603912E0,-2.026336212E0,1.036305292E0,5.319085717E-2,-8.846107125E-1,7.458949089E-1
1.054953292E0,1.726210327E0,-6.660100250E0,-2.355501709E0,1.046251292E0,1.712395698E-1,-9.916779995E-1,1.001311898E0
1.064899292E0,2.718646545E0,-6.537954254E0,-2.715503082E0,1.056197292E0,2.710990608E-1,-9.935746789E-1,1.056584001E0
1.074844292E0,2.184407501E0,-7.646548920E0,-2.115401001E0,1.066143292E0,3.817313015E-1,-1.085460544E0,1.074243426E0
1.084790292E0,6.827302551E-1,-9.362430725E0,-2.254461823E0,1.076088292E0,4.869290888E-1,-9.250758290E-1,1.115339160E0
1.094736292E0,1.016386414E-1,-1.010892838E1,-2.930605774E0,1.086034292E0,5.721725225E-1,-9.614870548E-1,1.110786915E0
1.104682292E0,8.580157471E-1,-9.612859955E0,-3.799548798E0,1.095980292E0,6.671975851E-1,-1.273963928E0,1.151529074E0
1.114627292E0,2.000440063E0,-1.017269577E1,-3.760030975E0,1.105926292E0,7.355705500E-1,-1.593971968E0,1.036520004E0
1.124573292E0,1.707499237E0,-1.157722504E1,-2.724933472E0,1.115871292E0,7.831982374E-1,-1.402961373E0,9.282246828E-1
1.134519292E0,1.185834045E0,-1.193872330E1,-4.065994720E0,1.125817292E0,8.681244850E-1,-1.018193483E0,9.752563834E-1
1.144465292E0,1.454525299E0,-1.288475601E1,-6.164031830E0,1.135763292E0,8.107227087E-1,-1.064157605E0,9.119125605E-1
1.154410292E0,1.748663635E0,-1.325508591E1,-6.862329712E0,1.145709292E0,5.923693776E-1,-1.362249732E0,8.493307829E-1
1.164356292E0,1.903890839E0,-1.329011307E1,-6.330335999E0,1.155654292E0,2.966234982E-1,-1.570209622E0,7.230575085E-1
1.174302292E0,1.585652618E0,-1.389874741E1,-5.350623322E0,1.165600292E0,2.363988943E-2,-1.452373028E0,6.385631561E-1
1.184248292E0,1.907483368E0,-1.382629807E1,-4.800816650E0,1.175546292E0,-2.357370555E-1,-1.138074875E0,5.712136030E-1
1.194193292E0,1.953138428E0,-1.318742661E1,-4.911137238E0,1.185492292E0,-5.009979606E-1,-6.130551100E-1,3.892824948E-1
1.204139292E0,1.159937897E0,-1.307575882E1,-6.479575653E0,1.195437292E0,-7.795595527E-1,-8.836285770E-2,1.383794546E-1
1.214085292E0,4.858895874E-1,-1.276695099E1,-7.735014954E0,1.205383292E0,-1.147858620E0,1.777216941E-1,-7.111202925E-2
1.224031292E0,2.354603577E-1,-1.182316360E1,-7.338040466E0,1.215329292E0,-1.250205517E0,2.534526885E-1,-2.551085055E-1
1.233977292E0,2.694396973E-1,-1.111977631E1,-6.177204437E0,1.225275292E0,-8.916891217E-1,3.828771114E-1,-4.151000381E-1
1.243922292E0,5.254074097E-1,-9.851164398E0,-4.017196198E0,1.235221292E0,-4.615145326E-1,5.876613855E-1,-5.798104405E-1
1.253868292E0,-6.286926270E-2,-1.111333969E1,-1.762734375E0,1.245166292E0,-3.345518410E-1,1.100694656E0,-7.749084830E-1
1.263814292E0,2.401007080E-1,-1.141406433E1,3.499722290E-1,1.255112292E0,-5.488625765E-1,1.671240687E0,-8.720025420E-1
1.273760292E0,1.179098053E0,-1.050919601E1,-6.816824341E-1,1.265058292E0,-3.539099991E-1,1.800882697E0,-9.090456367E-1
1.283705292E0,4.484674072E-1,-1.233255432E1,-1.426533508E0,1.275004292E0,-1.134997513E-2,1.511702299E0,-8.863901496E-1
1.293651292E0,-7.027885437E-1,-1.188124283E1,-1.090482330E0,1.284949292E0,1.161348671E-1,1.171032548E0,-4.532337785E-1
1.303597292E0,-1.760788422E0,-1.019170624E1,-7.364685059E-2,1.294895292E0,1.970137358E-1,8.881510496E-1,1.204390824E-1
1.313543292E0,-2.261347504E0,-9.794132996E0,-3.510200500E-1,1.304841292E0,4.860952795E-1,6.386081576E-1,5.328063369E-1
1.323488292E0,-1.728904724E0,-6.558760986E0,-5.766009521E-1,1.314787292E0,5.612561107E-1,1.302091479E-1,6.852142215E-1
1.333434292E0,-2.035766602E0,-5.257516937E0,2.154469757E0,1.324732292E0,6.392313838E-1,-1.421423405E-1,8.189315796E-1
1.343380292E0,-1.870210876E0,-6.424939270E0,4.156107330E0,1.334678292E0,8.567940593E-1,2.079810500E-1,1.010765791E0
1.353326292E0,-1.515448608E0,-7.591313782E0,3.254382477E0,1.344624292E0,7.618774772E-1,8.152694702E-1,1.088852286E0
1.363271292E0,4.034111023E-1,-9.395661621E0,1.572929077E0,1.354570292E0,6.105606556E-1,1.069663167E0,1.096238017E0
1.373217292E0,3.155288544E0,-1.186268143E1,3.998185730E-1,1.364515292E0,5.302880406E-1,6.055570841E-1,8.424863815E-1
1.383163292E0,5.341492310E0,-1.197509766E1,-6.430627441E-1,1.374461292E0,4.310017228E-1,3.652493954E-1,5.872803926E-1
1.393109292E0,6.749913483E0,-1.189336761E1,-1.002165985E0,1.384407292E0,4.998827577E-1,2.275023013E-1,3.610686362E-1
1.403054292E0,7.398664398E0,-1.217148926E1,-1.086889801E0,1.394353292E0,5.869217515E-1,2.754938006E-1,1.516395211E-1
1.413000292E0,6.743626556E0,-1.187465652E1,-1.338666229E0,1.404298292E0,6.633579731E-1,4.002070725E-1,-7.865598053E-2
1.422946292E0,5.011578369E0,-1.111184280E1,-1.662442932E0,1.414244292E0,6.878380179E-1,5.870624185E-1,-2.914795876E-1
1.432892292E0,3.029100952E0,-9.767488403E0,-1.910177765E0,1.424190292E0,6.461578608E-1,7.534312010E-1,-4.726949334E-1
1.442838292E0,1.163829803E0,-8.451275482E0,-1.966161346E0,1.434136292E0,5.771945119E-1,7.896808386E-1,-6.113148928E-1
1.452783292E0,-1.013991394E0,-7.657775574E0,-9.903405762E-1,1.444082292E0,4.982217550E-1,6.965209246E-1,-7.321771383E-1
1.462729292E0,-2.274819489E0,-8.116721191E0,3.360511780E-1,1.454027292E0,4.727813601E-1,7.816762924E-1,-5.273683071E-1
1.472675292E0,-2.896027679E0,-8.365803223E0,6.731501770E-1,1.463973292E0,6.320400834E-1,8.642337322E-1,-3.719831109E-1
1.482621292E0,-3.582949219E0,-8.190368042E0,7.056326294E-1,1.473919292E0,7.776300311E-1,8.239424825E-1,-2.317426652E-1
1.492566292E0,-4.032314758E0,-7.882158966E0,8.524772644E-1,1.483865292E0,8.632084131E-1,8.671450615E-1,-8.936741948E-2
1.502512292E0,-4.064348145E0,-7.677983551E0,3.993695068E-1,1.493810292E0,8.770078421E-1,1.041412711E0,9.198905528E-2
1.512458292E0,-3.345093842E0,-7.412435760E0,-4.328997803E-1,1.503756292E0,8.074007630E-1,1.113722682E0,2.481537759E-1
1.522404292E0,-2.221380615E0,-7.355853424E0,-6.312373352E-1,1.513702292E0,6.869955063E-1,9.977062345E-1,3.800793290E-1
1.532349292E0,-5.433700562E-2,-7.708220673E0,9.056167603E-2,1.523648292E0,5.852988958E-1,9.040511847E-1,4.296402931E-1
1.542295292E0,2.248174896E0,-8.362210693E0,8.488847351E-1,1.533593292E0,5.499805808E-1,9.669241905E-1,3.711958826E-1
1.552241292E0,4.046385498E0,-8.422834625E0,9.442364502E-1,1.543539292E0,6.055361629E-1,1.152801037E0,2.882381976E-1
1.562187292E0,4.975952454E0,-7.735913086E0,4.614903259E-1,1.553485292E0,6.984053850E-1,1.295816541E0,1.832076460E-1
1.572132292E0,4.703818359E0,-6.747219086E0,-3.499722290E-1,1.563431292E0,7.900986671E-1,1.336917281E0,7.625364512E-2
1.582078292E0,3.839665375E0,-6.340065765E0,-1.071920929E0,1.573376292E0,8.431549072E-1,1.244359851E0,7.144237310E-2
1.592024292E0,3.191662903E0,-7.155719604E0,-1.630110168E0,1.583322292E0,8.843387961E-1,1.045462251E0,7.885749638E-2
1.601970292E0,2.330803070E0,-8.518635406E0,-2.013013916E0,1.593268292E0,8.823038936E-1,7.636770010E-1,8.705230802E-2
1.611915292E0,1.923200684E0,-8.944948883E0,-2.113904114E0,1.603214292E0,8.595188260E-1,5.644678473E-1,1.782649159E-1
1.621861292E0,1.940265198E0,-9.099128265E0,-1.965861969E0,1.613159292E0,8.173702955E-1,4.219650030E-1,2.916993201E-1
1.631807292E0,1.963766327E0,-9.324709167E0,-1.500330048E0,1.623105292E0,7.549885511E-1,3.533963263E-1,4.286759198E-1
1.641753292E0,2.149829407E0,-9.587113495E0,-1.395547943E0,1.633051292E0,7.153468132E-1,2.820121348E-1,5.563222766E-1
1.651698292E0,2.481539612E0,-9.818532257E0,-1.688039703E0,1.642997292E0,6.625225544E-1,1.258799136E-1,6.430145502E-1
1.661644292E0,2.882406006E0,-1.032537827E1,-1.999392242E0,1.652942292E0,5.318561792E-1,-3.868240118E-2,7.565991282E-1
1.671590292E0,3.952830048E0,-1.113594269E1,-1.943857727E0,1.662888292E0,3.487128317E-1,-1.133246571E-1,8.582094312E-1
1.681536292E0,4.822371826E0,-1.192120972E1,-1.634002075E0,1.672834292E0,1.797840148E-1,-1.559349597E-1,7.456160188E-1
1.691481292E0,4.959337006E0,-1.434392166E1,-1.179247742E0,1.682780292E0,-3.294152208E-3,-1.728119552E-1,4.727841616E-1
1.701427292E0,4.520749054E0,-1.895253799E1,4.490661621E-2,1.692725292E0,-1.327357590E-1,-2.521874905E-1,2.114396393E-1
1.711373292E0,4.704866180E0,-1.858864471E1,1.112935638E0,1.702671292E0,-4.318505153E-2,-1.516953558E-1,1.058858782E-1
1.721319292E0,3.724554749E0,-1.382031052E1,5.533992004E-1,1.712617292E0,2.154997736E-1,2.737526298E-1,-1.108522862E-1
1.731264292E0,1.177152100E0,-1.189651108E1,-1.440903625E0,1.722563292E0,3.500701189E-1,5.508036017E-1,-3.469632566E-1
1.741210292E0,-7.834707642E-1,-1.052356613E1,-2.483485565E0,1.732508292E0,2.921796739E-1,5.605047345E-1,-3.715578020E-1
1.751156292E0,-8.387059021E-1,-9.696535950E0,-2.729873199E0,1.742454292E0,1.446379274E-1,3.826455176E-1,-2.651810944E-1
1.761102292E0,8.756790161E-2,-1.070932983E1,-1.560355225E0,1.752400292E0,6.578092277E-2,-6.595996022E-2,-2.517321408E-1
1.771048292E0,9.602531433E-1,-1.140897491E1,-2.267784119E-1,1.762346292E0,9.541396797E-2,-1.462478340E-1,-1.521017253E-1
1.780993292E0,1.882485352E0,-1.114297806E1,-7.017407227E-1,1.772292292E0,2.497212440E-1,-1.359973252E-1,1.655280031E-2
1.790939292E0,2.599943390E0,-1.075827805E1,-1.587448883E0,1.782237292E0,2.656054199E-1,-1.070598960E-1,1.614424735E-1
1.800885292E0,3.091521149E0,-1.002884491E1,-1.438508606E0,1.792183292E0,1.033808291E-1,-8.479715325E-4,2.505281270E-1
1.810831292E0,3.706592102E0,-7.999514923E0,-1.108444977E0,1.802129292E0,-1.820724905E-1,2.922160029E-1,3.318361342E-1
1.820776292E0,4.553830261E0,-5.583389282E0,-2.192939758E-1,1.812075292E0,-4.223998785E-1,5.014104843E-1,4.400728345E-1
1.830722292E0,5.838009796E0,-3.387156372E0,2.552192688E-1,1.822020292E0,-4.530563951E-1,6.458854675E-1,4.365265667E-1
1.840668292E0,6.838978271E0,-2.139949951E0,8.008346558E-2,1.831966292E0,-3.743245602E-1,7.366230488E-1,2.722228467E-1
1.850614292E0,7.419770508E0,-2.715054016E0,-1.348246307E0,1.841912292E0,-3.611392677E-1,7.035298944E-1,-3.735548258E-2
1.860559292E0,5.428162079E0,-5.359904022E0,-2.173330536E0,1.851858292E0,-4.907577336E-1,2.773423791E-1,-5.560926199E-1
1.870505292E0,1.490300903E0,-7.042405243E0,-9.291178894E-1,1.861803292E0,-5.159456730E-1,-3.665748835E-1,-7.666419744E-1
1.880451292E0,-5.264552307E-1,-7.670648804E0,4.090992737E-1,1.871749292E0,-4.407926202E-1,-9.343342185E-1,-7.034928203E-1
1.890397292E0,-1.044378204E0,-7.267986145E0,1.468146973E0,1.881695292E0,-4.246202707E-1,-1.375216007E0,-5.457533598E-1
1.900342292E0,-6.195616150E-1,-7.045848083E0,2.605930939E0,1.891641292E0,-5.109676123E-1,-1.772582889E0,-3.339097798E-1
1.910288292E0,-1.038839722E-1,-8.172854462E0,3.174448700E0,1.901586292E0,-6.164664626E-1,-1.691679358E0,-1.406314373E-1
1.920234292E0,1.203497314E-1,-1.221669525E1,1.740281067E0,1.911532292E0,-7.739130855E-1,-1.087666631E0,-1.186736599E-1
1.930180292E0,-3.495231628E-1,-1.750834122E1,4.635859680E-1,1.921478292E0,-1.055172563E0,-1.038166434E-1,-4.177795649E-1
1.940125292E0,-2.079326019E0,-2.161220718E1,-1.017733612E0,1.931424292E0,-1.231908679E0,7.400853038E-1,-9.236427546E-1
1.950071292E0,-4.409829712E0,-2.334006409E1,-1.732347565E0,1.941369292E0,-1.326343656E0,9.277172685E-1,-1.380722404E0
1.960017292E0,-6.698420563E0,-2.262784515E1,-6.539900208E-1,1.951315292E0,-1.472002268E0,9.430802464E-1,-1.451498508E0
1.969963292E0,-8.031997375E0,-2.047966232E1,-3.614982605E-1,1.961261292E0,-1.492859483E0,1.063646913E0,-1.132540703E0
1.979908458E0,-7.670948181E0,-1.765009644E1,-7.812254333E-1,1.971207292E0,-1.279608488E0,8.725923300E-1,-6.014750004E-1
1.989854458E0,-4.793481903E0,-1.402029465E1,-7.146139526E-1,1.981152458E0,-9.929757714E-1,5.492719412E-1,-5.495767668E-2
1.999800458E0,-1.408570862E0,-1.107786346E1,-5.459147644E-1,1.991098458E0,-8.502095938E-1,2.493757904E-1,3.325980306E-1
2.009746458E0,1.578168182E0,-9.332792358E0,-9.416917419E-1,2.001044458E0,-8.070698380E-1,5.984074995E-2,5.282700658E-1
2.019691458E0,4.391268311E0,-7.674840088E0,-1.594184875E0,2.010990458E0,-7.996420264E-1,-2.194364369E-1,5.155907273E-1
2.029637458E0,6.822811890E0,-6.347250824E0,-1.835782471E0,2.020935458E0,-8.264254928E-1,-4.588571787E-1,2.707999647E-1
2.039583458E0,7.638316040E0,-6.120771790E0,-2.914140015E0,2.030881458E0,-8.899938464E-1,-7.201108932E-1,-1.539760828E-1
2.049529458E0,6.587950287E0,-6.764133911E0,-3.368594971E0,2.040827458E0,-1.032140017E0,-8.882229328E-1,-5.185955167E-1
2.059474458E0,4.757556610E0,-7.417225800E0,-2.821931763E0,2.050773458E0,-1.133052349E0,-8.979626298E-1,-6.882308722E-1
2.069420458E0,3.626059570E0,-7.372319183E0,-2.334994354E0,2.060718458E0,-1.159925938E0,-9.056439400E-1,-6.932631731E-1
2.079366458E0,3.146007843E0,-7.178322601E0,-1.681902466E0,2.070664458E0,-1.121816635E0,-1.069966912E0,-7.081326842E-1
2.089312458E0,2.796784058E0,-7.259004822E0,-1.330732727E0,2.080610458E0,-1.018356800E0,-1.223298788E0,-7.590285540E-1
2.099257458E0,2.580034790E0,-7.132817230E0,-1.354682922E0,2.090556458E0,-8.930655122E-1,-1.374365211E0,-8.128092289E-1
2.109203458E0,2.258952484E0,-7.163054352E0,-1.193468170E0,2.100501458E0,-7.705473304E-1,-1.447691321E0,-8.895046115E-1
2.119149458E0,1.689237213E0,-7.426506500E0,-1.048569489E0,2.110447458E0,-6.434040070E-1,-1.476993799E0,-9.343871474E-1
2.129095458E0,9.343569946E-1,-7.903265076E0,-6.021977234E-1,2.120393458E0,-4.922043681E-1,-1.540878892E0,-9.070023298E-1
2.139040458E0,7.439529419E-1,-7.806865540E0,-3.558100891E-1,2.130339458E0,-2.710325718E-1,-1.616652489E0,-8.282824755E-1
2.148986458E0,7.283853149E-1,-6.943460999E0,-4.745132446E-1,2.140284458E0,-6.391311437E-2,-1.718839169E0,-8.278787136E-1
2.158932458E0,4.552033997E-1,-6.197562103E0,-5.590873718E-1,2.150230458E0,1.035360694E-1,-1.769649148E0,-8.005267382E-1
2.168878458E0,5.426216125E-1,-5.032385101E0,-8.931925964E-1,2.160176458E0,2.407916039E-1,-1.792860150E0,-7.158477306E-1
2.178823458E0,4.366419983E-1,-3.975582733E0,-9.639953613E-1,2.170122458E0,3.674179614E-1,-1.756512284E0,-6.424203515E-1
2.188769458E0,-4.041595459E-2,-3.499572601E0,-9.520202637E-1,2.180067458E0,5.003653169E-1,-1.616413951E0,-5.509582162E-1
2.198715458E0,-4.689747620E-1,-3.473676453E0,-1.067879333E0,2.190013458E0,6.194519997E-1,-1.399431109E0,-4.643873572E-1
2.208661458E0,-7.300318909E-1,-3.691323853E0,-1.300944672E0,2.199959458E0,7.115223408E-1,-1.181085825E0,-3.402716815E-1
2.218606458E0,-6.658154297E-1,-3.737427979E0,-1.470991058E0,2.209905458E0,7.573090196E-1,-1.023862958E0,-1.993433088E-1
2.228552458E0,-8.249345398E-1,-4.075425110E0,-1.609602814E0,2.219850458E0,7.893464565E-1,-8.764160872E-1,-9.503764659E-2
2.238498458E0,-1.128652954E0,-4.815785522E0,-2.071991272E0,2.229796458E0,7.919606566E-1,-7.083584070E-1,3.555019200E-2
2.248444458E0,-9.755213928E-1,-5.538632355E0,-2.627785492E0,2.239742458E0,7.707198858E-1,-4.915813208E-1,1.542408615E-1
2.258389458E0,-6.391708374E-1,-6.636299744E0,-3.166215820E0,2.249688458E0,7.765905261E-1,-2.866249681E-1,2.262873650E-1
2.268335458E0,-7.497908020E-1,-8.561596069E0,-3.895798645E0,2.259633458E0,7.928757668E-1,-1.185590699E-1,3.795465827E-1
2.278281458E0,1.215472412E-1,-9.723030853E0,-5.045557709E0,2.269579458E0,6.728563905E-1,-2.055139244E-1,5.753296614E-1
2.288227458E0,1.298549652E0,-1.069675598E1,-4.994364166E0,2.279525458E0,4.320718646E-1,-4.655511975E-1,6.569036841E-1
2.298172458E0,1.706601105E0,-1.254795639E1,-5.017715607E0,2.289471458E0,2.457629740E-1,-6.843501329E-1,6.620284319E-1
2.308118458E0,1.919009399E0,-1.446382233E1,-4.959187317E0,2.299416458E0,8.897670358E-2,-8.594049215E-1,6.731851101E-1
2.318064458E0,1.756746826E0,-1.572689575E1,-4.074377289E0,2.309362458E0,-1.083129346E-1,-1.018411636E0,6.216375232E-1
2.328010458E0,1.106349335E0,-1.578332840E1,-2.766546936E0,2.319308458E0,-2.405520231E-1,-9.311622977E-1,5.255666971E-1
2.337955458E0,1.241069183E0,-1.440364746E1,-3.466940460E0,2.329254458E0,-2.217650265E-1,-6.670832038E-1,4.287946224E-1
2.347901458E0,2.263742523E0,-1.195399155E1,-5.984255676E0,2.339199458E0,-2.586298585E-1,-1.345002353E-1,3.004828990E-1
2.357847458E0,3.210074615E0,-9.989327087E0,-8.937763824E0,2.349145458E0,-5.088980198E-1,4.143295884E-1,1.220804006E-1
2.367793458E0,3.677552490E0,-8.488098907E0,-1.002630020E1,2.359091458E0,-7.515022755E-1,7.810875177E-1,-1.471485477E-2
2.377738458E0,3.506757660E0,-7.109016724E0,-9.323811035E0,2.369037458E0,-7.490662932E-1,1.018953681E0,-7.590923458E-2
2.387684458E0,1.975741425E0,-7.624993744E0,-7.549251251E0,2.378982458E0,-9.921463132E-1,9.057543278E-1,-2.093459517E-1
2.397630458E0,2.589614868E-2,-1.025726990E1,-4.177662506E0,2.388928458E0,-1.294752002E0,7.985681891E-1,-3.042844236E-1
2.407576458E0,6.837780762E-1,-1.381746643E1,-3.177143097E0,2.398874458E0,-1.156242728E0,4.163174927E-1,-2.780968249E-1
2.417521458E0,2.329605560E0,-1.764111511E1,-1.903292084E0,2.408820458E0,-8.726280928E-1,-1.915857792E-1,-3.251282573E-1
2.427467458E0,7.798782349E-1,-2.103650436E1,2.153721313E0,2.418765458E0,-4.687519968E-1,-1.618602574E-1,-2.531704009E-1
2.437413458E0,-1.076860657E0,-2.053130493E1,3.285966797E0,2.428711458E0,1.778557897E-1,1.336925626E-1,1.862804443E-1
2.447359458E0,-1.197060699E0,-1.536210434E1,1.649420013E0,2.438657458E0,4.651080072E-1,2.605921328E-1,3.990806043E-1
2.457304458E0,-2.697091370E0,-1.157722504E1,1.508263550E0,2.448603458E0,3.937102556E-1,1.548236609E-1,3.151433766E-1
2.467250458E0,-3.797902222E0,-8.728948059E0,1.577270050E0,2.458548458E0,3.035822213E-1,-1.625200808E-1,4.423762262E-1
2.477196458E0,-3.604354706E0,-6.681356049E0,1.994901581E0,2.468494458E0,2.992929518E-1,-3.567017913E-1,7.065892816E-1
2.487141458E0,-1.949994965E0,-5.639073486E0,2.931803284E0,2.478440458E0,4.440611005E-1,-1.141060442E-1,8.822680116E-1
2.497087458E0,-2.986289978E-1,-5.643863525E0,3.613934784E0,2.488385458E0,6.414463520E-1,5.838093758E-1,8.904809356E-1
2.507033458E0,1.195563812E0,-6.521488495E0,2.756517792E0,2.498331458E0,8.338459134E-1,1.370897889E0,8.162333369E-1
2.516979458E0,2.809357910E0,-7.925119629E0,8.490344238E-1,2.508277458E0,1.032578945E0,1.846876144E0,7.132643461E-1
2.526924458E0,4.176015930E0,-9.594747620E0,-7.538323975E-1,2.518223458E0,1.108933330E0,1.667890906E0,6.550276279E-1
2.536870458E0,4.572691040E0,-1.184292252E1,-1.757794647E0,2.528168458E0,9.419243932E-1,1.108371615E0,6.932871342E-1
2.546816458E0,4.839136963E0,-1.326137283E1,-1.974843292E0,2.538114458E0,7.635874748E-1,3.877921402E-1,6.315423250E-1
2.556762458E0,4.750670929E0,-1.307246567E1,-1.518292694E0,2.548060458E0,7.431296110E-1,-9.274170548E-2,3.699743450E-1
2.566707458E0,3.831432495E0,-1.173335037E1,-1.103954315E0,2.558006458E0,7.950404882E-1,-1.852794588E-1,5.461170897E-2
2.576653458E0,2.468367004E0,-1.023975632E1,-8.425978088E-1,2.567951458E0,7.952314615E-1,-3.932309803E-3,-1.506146789E-1
2.586599458E0,9.315129089E-1,-9.056017914E0,-9.472302246E-1,2.577897458E0,7.287918329E-1,2.735297084E-1,-2.445294261E-1
2.596545458E0,-5.236111450E-1,-8.357270966E0,-7.220983887E-1,2.587843458E0,6.559495926E-1,4.594708085E-1,-2.529602051E-1
2.606490458E0,-1.686542816E0,-8.348139954E0,-2.658471680E-1,2.597789458E0,6.301408410E-1,6.459622979E-1,-2.425739318E-1
2.616436458E0,-2.476599884E0,-8.742869110E0,2.401007080E-1,2.607734458E0,6.021590233E-1,8.260321617E-1,-2.387006283E-1
2.626382458E0,-3.099155273E0,-8.617879028E0,8.710386658E-1,2.617680458E0,5.959921479E-1,1.141139150E0,-2.385723442E-1
2.636328458E0,-3.400628357E0,-8.023465118E0,6.815327454E-1,2.627626458E0,5.989429355E-1,1.491589069E0,-2.053225189E-1
2.646273458E0,-3.617078247E0,-7.521558838E0,3.851490784E-1,2.637572458E0,5.957069397E-1,1.725900173E0,-1.102397516E-1
2.656219458E0,-3.293002167E0,-7.057523804E0,2.676434326E-1,2.647517458E0,5.811204910E-1,1.780073404E0,3.482289612E-2
2.666165458E0,-2.595752106E0,-6.812333679E0,7.026388550E-1,2.657463458E0,5.419917703E-1,1.761820793E0,1.733900905E-1
2.676111458E0,-1.614392853E0,-6.707551575E0,1.165925446E0,2.667409458E0,5.020097494E-1,1.706217766E0,2.902860641E-1
2.686056458E0,-2.384541321E-1,-6.875202942E0,1.479223938E0,2.677355458E0,5.525174737E-1,1.592455029E0,3.451324999E-1
2.696002458E0,1.096769257E0,-7.396868134E0,1.425635376E0,2.687300458E0,6.984587312E-1,1.477211356E0,3.588581681E-1
2.705948458E0,2.192191315E0,-8.030201111E0,7.946974182E-1,2.697246458E0,8.657823205E-1,1.421277404E0,3.794444501E-1
2.715894458E0,2.906954956E0,-8.521030426E0,-2.071691895E-1,2.707192458E0,9.613624215E-1,1.414385080E0,3.931514621E-1
2.725839458E0,3.253334656E0,-8.490044861E0,-1.390009460E0,2.717138458E0,9.822503924E-1,1.407592058E0,4.057845473E-1
2.735785458E0,3.259621582E0,-8.157137146E0,-2.663710785E0,2.727083458E0,8.819969893E-1,1.347880840E0,4.208753407E-1
2.745731458E0,3.142265625E0,-7.734266510E0,-2.948568420E0,2.737029458E0,6.584786177E-1,1.205136895E0,4.505525827E-1
2.755677458E0,2.934647369E0,-7.420818329E0,-2.261796570E0,2.746975458E0,4.415561557E-1,1.008989215E0,4.873952866E-1
2.765622458E0,2.511926422E0,-7.390281830E0,-1.167572021E0,2.756921458E0,3.656466603E-1,8.034103513E-1,5.683839917E-1
2.775568458E0,2.305505676E0,-7.273225250E0,-4.064048767E-1,2.766866458E0,4.020880461E-1,6.512519717E-1,6.669497490E-1
2.785514458E0,2.359543304E0,-7.116052094E0,-1.589694214E-1,2.776812458E0,4.413737059E-1,4.855995476E-1,7.439177036E-1
2.795459458E0,2.742896118E0,-7.319479065E0,-4.290078735E-1,2.786758458E0,5.009411573E-1,3.063363135E-1,7.861618400E-1
2.805405458E0,3.423680420E0,-7.811056824E0,-1.213676147E0,2.796703458E0,5.520898104E-1,1.252017766E-1,7.736961842E-1
2.815351458E0,4.158053284E0,-8.456963654E0,-1.959125977E0,2.806649458E0,5.521470308E-1,1.025868487E-2,6.920170784E-1
2.825297458E0,4.433181152E0,-9.239386597E0,-2.392774200E0,2.816595458E0,4.522080421E-1,5.411401019E-2,5.499964952E-1
2.835242458E0,4.302652588E0,-9.946965179E0,-2.230212250E0,2.826541458E0,2.961809039E-1,1.760630906E-1,4.020427465E-1
2.845188458E0,3.718866577E0,-1.047162415E1,-2.359243927E0,2.836486458E0,2.523063421E-1,3.282811046E-1,2.563921511E-1
2.855134458E0,2.717598724E0,-1.079794556E1,-2.357896729E0,2.846432458E0,2.084387690E-1,3.142236173E-1,1.882061809E-1
2.865080458E0,2.337539063E0,-1.073283096E1,-1.522034912E0,2.856378458E0,1.716782004E-1,2.287331820E-1,2.281294465E-1
2.875025458E0,3.406166840E0,-1.044138702E1,-9.618997192E-1,2.866324458E0,2.124956697E-1,1.282129586E-1,2.988763154E-1
2.884971458E0,4.884492645E0,-1.027044250E1,-7.752378845E-1,2.876269458E0,3.349071145E-1,-5.155289918E-2,2.793794572E-1
2.894917458E0,5.475164337E0,-1.028990204E1,-9.538165283E-1,2.886215458E0,4.705594778E-1,-2.444286048E-1,1.984632909E-1
2.904863458E0,5.484445038E0,-1.061053528E1,-1.648222504E0,2.896161458E0,5.541040897E-1,-3.846152723E-1,1.460731328E-1
2.914808458E0,5.367538147E0,-1.111678253E1,-2.540217590E0,2.906107458E0,5.502384901E-1,-4.696470797E-1,1.105726585E-1
2.924754458E0,5.066963196E0,-1.157408157E1,-2.650837555E0,2.916052458E0,4.448641241E-1,-5.356535912E-1,6.851036102E-2
2.934700458E0,4.910837860E0,-1.207987976E1,-1.841171265E0,2.925998458E0,3.303188980E-1,-5.977438688E-1,-3.715096507E-3
2.944646458E0,4.581672363E0,-1.313353867E1,-1.168320465E0,2.935944458E0,3.151087165E-1,-7.254050374E-1,-1.140312254E-1
2.954591458E0,3.710633698E0,-1.417627029E1,-1.245709534E0,2.945890458E0,2.990288138E-1,-8.767040372E-1,-2.162438780E-1
2.964537458E0,2.035317535E0,-1.417417465E1,-1.419647827E0,2.955835458E0,1.433909386E-1,-1.008483052E0,-3.352865875E-1
2.974482792E0,9.490264893E-2,-1.308039917E1,-6.221063232E-1,2.965781458E0,-7.499651611E-2,-1.083472133E0,-4.970541596E-1
2.984427792E0,-1.228345642E0,-1.198228271E1,-6.436614990E-2,2.975726792E0,-2.883446515E-1,-1.149838328E0,-5.678060055E-1
2.994373792E0,-1.422042847E0,-1.124596390E1,2.586621094E-1,2.985671792E0,-5.984457731E-1,-1.472956538E0,-5.924120545E-1
3.004319792E0,-1.599423981E0,-1.076995377E1,1.040635986E0,2.995617792E0,-8.565517068E-1,-1.813952923E0,-6.332145333E-1
3.014265792E0,-1.909728699E0,-1.107891129E1,4.077520752E-1,3.005563792E0,-1.034541726E0,-1.986362457E0,-6.665143967E-1
3.024210792E0,-2.034269714E0,-1.255109985E1,-1.242117004E0,3.015509792E0,-1.359398127E0,-1.934138298E0,-7.714764476E-1
3.034156792E0,-2.236199799E0,-1.465826797E1,-1.430874481E0,3.025454792E0,-1.774694324E0,-1.721126676E0,-9.320933223E-1
3.044102792E0,-2.631677399E0,-1.577853836E1,-1.441502380E-1,3.035400792E0,-2.133328915E0,-1.323532224E0,-1.103505015E0
3.054048792E0,-3.103795624E0,-1.607162888E1,1.648521881E0,3.045346792E0,-2.282715559E0,-7.649853230E-1,-1.255958438E0
3.063993792E0,-4.355043640E0,-1.680255890E1,3.053799591E0,3.055292792E0,-2.231853008E0,-1.316483617E-1,-1.311616659E0
3.073939792E0,-5.871689758E0,-1.716300934E1,3.500321045E0,3.065237792E0,-2.139104605E0,7.028723359E-1,-1.153499961E0
3.083885792E0,-6.849755859E0,-1.650692368E1,3.378474426E0,3.075183792E0,-2.009322166E0,1.386173844E0,-8.037125468E-1
3.093831792E0,-6.596183167E0,-1.461620544E1,3.213667145E0,3.085129792E0,-1.726238251E0,1.713812947E0,-3.855584860E-1
3.103776792E0,-4.465513916E0,-1.217148926E1,2.775677948E0,3.095075792E0,-1.276665092E0,1.471183538E0,-1.189093441E-1
3.113722792E0,-2.795436859E0,-1.043929138E1,1.148860931E0,3.105020792E0,-8.299981356E-1,8.491404653E-1,-8.464060724E-3
3.123668792E0,-9.204359436E-1,-9.430090027E0,-1.229842529E0,3.114966792E0,-5.978416204E-1,4.721395373E-1,1.185576171E-1
3.133614792E0,1.189875641E0,-9.038953400E0,-2.793939972E0,3.124912792E0,-6.236066818E-1,2.011296004E-1,2.134942412E-1
3.143559792E0,3.410358124E0,-8.742420044E0,-3.392096100E0,3.134858792E0,-7.495031357E-1,2.102955244E-3,1.633758992E-1
3.153505792E0,5.110073547E0,-9.004075928E0,-3.958967285E0,3.144803792E0,-9.141003489E-1,-7.896286994E-2,-4.535761476E-2
3.163451792E0,4.932991791E0,-1.013497421E1,-3.730093231E0,3.154749792E0,-1.043991685E0,-1.064452752E-1,-2.161544710E-1
3.173396792E0,3.900438995E0,-1.034498749E1,-3.854634247E0,3.164695792E0,-1.127298117E0,-1.497962028E-1,-2.845292687E-1
3.183342792E0,2.467319183E0,-9.848619690E0,-3.204087067E0,3.174640792E0,-1.168867230E0,-2.604585886E-1,-2.166619450E-1
3.193288792E0,2.090402985E0,-8.469238129E0,-2.638114014E0,3.184586792E0,-1.202555418E0,-4.516482651E-1,-1.603712440E-1
3.203234792E0,1.882635040E0,-7.280859375E0,-2.063908081E0,3.194532792E0,-1.235234737E0,-6.266463995E-1,-1.534620523E-1
3.213179792E0,1.798210602E0,-6.387068024E0,-1.671573944E0,3.204478792E0,-1.210481405E0,-7.346130610E-1,-1.484814137E-1
3.223125792E0,1.814376984E0,-5.664969635E0,-1.263971558E0,3.214423792E0,-1.139967084E0,-8.256829977E-1,-1.543169320E-1
3.233071792E0,1.795216827E0,-5.063670044E0,-6.340814209E-1,3.224369792E0,-1.033856630E0,-8.200091124E-1,-1.573406756E-1
3.243017792E0,1.765428772E0,-4.506229248E0,-2.561174011E-1,3.234315792E0,-8.987726569E-1,-7.937499285E-1,-2.012265921E-1
3.252962792E0,1.472038879E0,-4.008364563E0,-9.145980835E-2,3.244261792E0,-7.548990846E-1,-7.244611382E-1,-2.807006538E-1
3.262908792E0,1.013692017E0,-3.693120117E0,-1.981878662E-1,3.254206792E0,-5.799230337E-1,-8.337134123E-1,-3.469791114E-1
3.272854792E0,8.863069153E-1,-3.576213226E0,-1.338217163E-1,3.264152792E0,-3.769091964E-1,-1.150114298E0,-3.628915250E-1
3.282800792E0,1.026415558E0,-3.265758820E0,-1.001417542E-1,3.274098792E0,-1.627452075E-1,-1.490122437E0,-3.577294052E-1
3.292745792E0,1.024020538E0,-3.022364960E0,-1.558259583E-1,3.284044792E0,4.714597389E-2,-1.661334395E0,-3.645846546E-1
3.302691792E0,9.446855164E-1,-3.118614807E0,-4.505630493E-1,3.293989792E0,2.433555573E-1,-1.619977474E0,-3.274970949E-1
3.312637792E0,1.052461395E0,-3.308270416E0,-9.080117798E-1,3.303935792E0,3.936667442E-1,-1.415309548E0,-2.736903131E-1
3.322582792E0,1.137035522E0,-3.686084747E0,-1.410217438E0,3.313881792E0,5.193576813E-1,-1.176472545E0,-2.660525143E-1
3.332528792E0,1.119521942E0,-4.030518494E0,-1.938019867E0,3.323826792E0,6.504475474E-1,-9.419634342E-1,-2.790737748E-1
3.342474792E0,1.268162842E0,-4.084406433E0,-2.621498566E0,3.333772792E0,7.789671421E-1,-7.005978823E-1,-3.321634233E-1
3.352420792E0,8.713380432E-1,-4.996609497E0,-3.260669403E0,3.343718792E0,8.797765374E-1,-4.269285202E-1,-4.116880894E-1
3.362365792E0,3.501219177E-1,-6.792425079E0,-3.898043976E0,3.353664792E0,9.453235865E-1,-1.700156480E-1,-3.517946601E-1
3.372311792E0,6.963519287E-1,-8.773405609E0,-5.101690979E0,3.363609792E0,9.737083316E-1,-4.013195261E-2,-2.250063419E-1
3.382257792E0,1.093625793E0,-1.102532272E1,-5.892945557E0,3.373555792E0,8.906078339E-1,-5.633487105E-1,-1.692555845E-1
3.392203792E0,1.669178925E0,-1.178229858E1,-5.331313477E0,3.383501792E0,7.682824135E-1,-1.024567127E0,-1.825559437E-1
3.402148792E0,1.423390045E0,-1.218181778E1,-6.131699066E0,3.393447792E0,7.378399968E-1,-1.424940228E0,-1.480150819E-1
3.412094792E0,-1.511856079E-1,-1.311048660E1,-6.938820648E0,3.403392792E0,6.218955517E-1,-1.460202575E0,3.142071888E-2
3.422040792E0,-1.964963837E0,-1.438867859E1,-7.674241333E0,3.413338792E0,2.732601464E-1,-1.267681003E0,2.172120661E-1
3.431985792E0,-2.797532501E0,-1.438358917E1,-6.293662262E0,3.423284792E0,-2.129586414E-2,-1.339694262E0,3.746586740E-1
3.441931792E0,-2.164798279E0,-1.281440231E1,-4.692442017E0,3.433229792E0,-7.725892216E-2,-1.231057167E0,4.413471818E-1
3.451877792E0,-1.021176453E0,-1.124506577E1,-5.341941376E0,3.443175792E0,-5.572215188E-3,-7.289968133E-1,4.183371961E-1
3.461823792E0,3.522175598E-1,-1.019814285E1,-7.691605225E0,3.453121792E0,-9.970949590E-2,-2.216704637E-1,3.402757645E-1
3.471768792E0,1.632654877E0,-9.272168427E0,-9.387129364E0,3.463067792E0,-2.097638100E-1,1.142873019E-1,2.099286765E-1
3.481714792E0,2.466271362E0,-7.539521484E0,-9.782307587E0,3.473012792E0,-3.360699713E-1,3.171119988E-1,2.962668240E-2
3.491660792E0,1.322050781E0,-6.816075897E0,-1.029873367E1,3.482958792E0,-7.166407704E-1,3.694407046E-1,-1.590779871E-1
3.501606792E0,-7.717950439E-1,-8.764124908E0,-7.847281494E0,3.492904792E0,-1.445148230E0,4.331242740E-1,-2.962900996E-1
3.511551792E0,-6.466552734E-1,-1.211236221E1,-4.526437225E0,3.502850792E0,-1.707909226E0,4.893353283E-1,-2.117557973E-1
3.521497792E0,2.274969177E0,-1.629092285E1,-2.655926971E0,3.512795792E0,-1.391414523E0,-1.816584468E-1,-1.620365828E-1
3.531443792E0,3.076252899E0,-2.031934570E1,2.119592285E-1,3.522741792E0,-1.037849784E0,-5.059246421E-1,-1.073802635E-1
3.541389792E0,1.524280243E0,-2.237906250E1,1.492845612E0,3.532687792E0,-6.229345798E-1,-3.329319954E-1,2.056775987E-1
3.551334792E0,1.045875092E0,-1.912348251E1,4.667294312E-1,3.542633792E0,-2.099925429E-1,-7.192329317E-2,4.672881663E-1
3.561280792E0,3.296145630E-1,-1.331136887E1,8.873547363E-1,3.552578792E0,-1.868618429E-1,2.170775980E-1,3.380428851E-1
3.571226792E0,-1.729952545E0,-1.037253021E1,1.858684845E0,3.562524792E0,-1.582408547E-1,4.250158668E-1,2.879432440E-1
3.581171792E0,-1.618733826E0,-9.002728729E0,1.560654602E0,3.572470792E0,-4.173194245E-2,5.057567954E-1,5.508026481E-1
3.591117792E0,6.439608765E-1,-8.077053680E0,1.309776306E0,3.582415792E0,4.906640202E-2,4.149605930E-1,7.720604539E-1
3.601063792E0,2.883753204E0,-7.718549194E0,2.143692169E0,3.592361792E0,1.516042650E-1,3.691144288E-1,8.480513096E-1
3.611009792E0,4.306694183E0,-7.775879974E0,2.089055786E0,3.602307792E0,3.170467615E-1,4.056234360E-1,8.141892552E-1
3.620954792E0,4.705764313E0,-8.402476959E0,1.752256165E0,3.612253792E0,4.991719425E-1,4.004146159E-1,7.475497723E-1
3.630900792E0,4.385879517E0,-9.568851471E0,1.657203827E0,3.622198792E0,6.791962981E-1,2.084374428E-1,7.482171655E-1
3.640846792E0,4.458478546E0,-1.029499146E1,1.543889465E0,3.632144792E0,8.284889460E-1,-1.002037674E-1,8.215439320E-1
3.650792792E0,5.082381134E0,-1.026161087E1,1.424437866E0,3.642090792E0,9.702321887E-1,-5.601425767E-1,7.493109703E-1
3.660737792E0,5.106331329E0,-1.005893234E1,1.358574829E0,3.652036792E0,1.142544866E0,-1.066517591E0,5.248159170E-1
3.670683792E0,4.399650879E0,-9.681567078E0,1.249601440E0,3.661981792E0,1.331576109E0,-1.240939498E0,2.260047048E-1
3.680629792E0,3.381468201E0,-9.209299164E0,9.457333374E-1,3.671927792E0,1.474786520E0,-9.659227133E-1,-5.628023669E-2
3.690574792E0,2.190544739E0,-8.732390900E0,1.416055298E-1,3.681873792E0,1.521064639E0,-4.853502512E-1,-3.466167152E-1
3.700520792E0,4.480183411E-1,-8.599766693E0,-4.158352661E-1,3.691818792E0,1.527181625E0,-5.989217013E-2,-5.856663585E-1
3.710466792E0,-1.625320129E0,-9.056466980E0,-9.762698364E-1,3.701764792E0,1.522168756E0,2.476992011E-1,-7.274813056E-1
3.720412792E0,-3.544179840E0,-9.372459869E0,-1.418150940E0,3.711710792E0,1.461920619E0,5.267093182E-1,-7.345082760E-1
3.730357792E0,-4.893174591E0,-9.127120056E0,-1.783990173E0,3.721656792E0,1.310171604E0,7.174357176E-1,-6.124422550E-1
3.740303792E0,-5.568270721E0,-8.390950928E0,-1.727707214E0,3.731601792E0,1.066712976E0,8.363038301E-1,-4.052134156E-1
3.750249792E0,-5.679339752E0,-7.311545563E0,-1.232836304E0,3.741547792E0,8.306061029E-1,1.047389507E0,-2.013827562E-1
3.760195792E0,-5.187462616E0,-6.392307129E0,-7.295828247E-1,3.751493792E0,6.173000336E-1,1.296977639E0,-7.462373935E-3
3.770140792E0,-3.677552490E0,-5.959257660E0,2.814147949E-2,3.761439792E0,4.321757257E-1,1.403879642E0,1.699281186E-1
3.780086792E0,-1.721569977E0,-6.756649475E0,1.296004944E0,3.771384792E0,3.677673936E-1,1.259527683E0,2.633538544E-1
3.790032792E0,1.574725342E-1,-7.998916168E0,2.258204041E0,3.781330792E0,4.223699272E-1,1.233076453E0,2.946974039E-1
3.799977792E0,2.073787537E0,-8.856782227E0,2.288291473E0,3.791276792E0,5.492024422E-1,1.401933312E0,2.467065156E-1
3.809923792E0,3.226690063E0,-9.297765198E0,1.758393402E0,3.801221792E0,7.135682106E-1,1.557881117E0,1.247957945E-1
3.819869792E0,3.106340332E0,-9.373507690E0,6.870712280E-1,3.811167792E0,8.245867491E-1,1.722258568E0,8.953519166E-3
3.829815792E0,2.194436646E0,-9.029073944E0,-7.092251587E-1,3.821113792E0,8.218775392E-1,1.760517001E0,-1.253632642E-2
3.839760792E0,1.313518524E0,-8.504414978E0,-1.767674103E0,3.831059792E0,7.175801396E-1,1.677988410E0,4.797938466E-2
3.849706792E0,7.741900635E-1,-8.388406219E0,-2.232158203E0,3.841004792E0,5.705198646E-1,1.499141455E0,1.655968279E-1
3.859652792E0,6.286926270E-1,-8.589887238E0,-1.794618073E0,3.850950792E0,4.325198829E-1,1.344221592E0,3.126752675E-1
3.869598792E0,6.706054688E-1,-8.476572876E0,-1.046024780E0,3.860896792E0,3.594339490E-1,1.249481678E0,4.348232746E-1
3.879543792E0,7.785310364E-1,-8.218509521E0,-5.110372925E-1,3.870842792E0,3.490379751E-1,1.103093743E0,5.259898305E-1
3.889489792E0,9.436376953E-1,-7.957153015E0,-2.978805542E-1,3.880787792E0,3.988004625E-1,1.008717895E0,6.158507466E-1
3.899435792E0,1.162332916E0,-7.858508148E0,-7.086264038E-1,3.890733792E0,4.728925526E-1,9.566423893E-1,6.943681836E-1
3.909380792E0,1.493893433E0,-7.934999084E0,-1.489402771E0,3.900679792E0,4.833262861E-1,8.853287697E-1,7.308516502E-1
3.919326792E0,2.083217926E0,-8.142018585E0,-2.201472015E0,3.910624792E0,4.052427113E-1,7.729408741E-1,7.199307084E-1
3.929272792E0,2.886896667E0,-8.410709839E0,-2.405198364E0,3.920570792E0,2.777958214E-1,6.986434460E-1,6.854470372E-1
3.939218792E0,3.722459106E0,-8.499175873E0,-2.307751007E0,3.930516792E0,1.647564471E-1,7.231311202E-1,6.138644814E-1
3.949163792E0,4.280798035E0,-8.696615295E0,-1.917213135E0,3.940462792E0,7.039850950E-2,7.761871219E-1,4.933239520E-1
3.959109792E0,4.329147491E0,-9.192683716E0,-1.614093475E0,3.950407792E0,7.903794944E-2,8.107722998E-1,3.482923210E-1
3.969055792E0,3.871399384E0,-9.816436615E0,-2.122436371E0,3.960353792E0,1.698485613E-1,7.362759709E-1,2.272956073E-1
3.979002417E0,2.731669464E0,-1.019020935E1,-1.629361725E0,3.970299792E0,2.120121568E-1,5.838784575E-1,2.044767141E-1
3.988947417E0,2.047891388E0,-1.027538223E1,-8.701405334E-1,3.980246417E0,2.332743108E-1,6.518580317E-1,3.023036718E-1
3.998893417E0,2.866539001E0,-1.038300842E1,-8.737330627E-1,3.990191417E0,3.057936132E-1,5.550376773E-1,3.855529428E-1
4.008839417E0,4.464166718E0,-1.057865158E1,-1.132245483E0,4.000137417E0,3.965474963E-1,2.976975441E-1,3.819102645E-1
4.018784417E0,5.910459137E0,-1.088251968E1,-1.346450043E0,4.010083417E0,4.713897407E-1,6.488510221E-2,3.325091004E-1
4.028730417E0,6.893165588E0,-1.115240845E1,-1.663490753E0,4.020028417E0,5.379661322E-1,-7.151827961E-2,2.582521737E-1
4.038676417E0,7.189399567E0,-1.140014328E1,-2.055824890E0,4.029974417E0,5.629596114E-1,-1.593343019E-1,1.619509310E-1
4.048622417E0,6.736591187E0,-1.167572021E1,-2.351609802E0,4.039920417E0,5.486424565E-1,-2.061779797E-1,6.929157674E-2
4.058567417E0,5.950126648E0,-1.174218201E1,-2.432591400E0,4.049866417E0,5.325742960E-1,-2.703559995E-1,3.513103351E-3
4.068513417E0,4.995561676E0,-1.172466843E1,-2.502645721E0,4.059811417E0,5.199615359E-1,-3.239593208E-1,-3.675336018E-2
4.078459417E0,4.105213165E0,-1.154174881E1,-2.478994904E0,4.069757417E0,4.783881307E-1,-3.536405861E-1,-3.575001657E-2
4.088404417E0,3.939807129E0,-1.110690308E1,-1.637145538E0,4.079703417E0,4.421877861E-1,-3.830621243E-1,-2.017212287E-2
4.098350417E0,3.652704163E0,-1.111842911E1,-1.706451416E0,4.089648417E0,5.156399608E-1,-5.114114881E-1,-7.486832142E-2
4.108296417E0,2.250719604E0,-1.150851791E1,-2.937790833E0,4.099594417E0,4.353688061E-1,-6.928667426E-1,-1.525290310E-1
4.118242417E0,6.348298645E-1,-1.177167068E1,-1.913770294E0,4.109540417E0,1.046772078E-1,-7.267911434E-1,-2.185313851E-1
4.128187417E0,-5.917195129E-1,-1.146870071E1,-1.883084106E-1,4.119486417E0,-1.951108426E-1,-6.138027906E-1,-2.710662484E-1
4.138133417E0,-1.533560944E0,-1.080692688E1,8.187973022E-1,4.129431417E0,-4.958192110E-1,-7.279092073E-1,-3.090623915E-1
4.148079417E0,-1.892514496E0,-1.008018814E1,2.414029999E0,4.139377417E0,-7.964586616E-1,-1.023030043E0,-3.381012380E-1
4.158025417E0,-2.125579834E0,-9.359886017E0,3.148103485E0,4.149323417E0,-8.691428304E-1,-1.123139858E0,-3.645507991E-1
4.167970417E0,-1.785636749E0,-9.438472595E0,6.156697083E-1,4.159269417E0,-8.749724627E-1,-1.157379866E0,-3.835372925E-1
4.177916417E0,-3.745211792E-1,-1.143996048E1,-2.136507111E0,4.169214417E0,-1.136964798E0,-1.293914080E0,-5.807920098E-1
4.187862417E0,-8.232879639E-3,-1.360850098E1,-1.545386353E0,4.179160417E0,-1.483662367E0,-1.344237089E0,-8.839590549E-1
4.197807417E0,-1.475930786E-1,-1.473071732E1,6.810836792E-2,4.189106417E0,-1.734621167E0,-9.082537293E-1,-1.125863433E0
4.207753417E0,-6.966513062E-1,-1.495525040E1,8.042774963E-1,4.199051417E0,-1.845613718E0,-5.280666947E-1,-1.323966146E0
4.217699417E0,-2.119592285E0,-1.495839386E1,1.301992493E0,4.208997417E0,-1.906187177E0,-1.001089588E-1,-1.394640803E0
4.227645417E0,-3.346740417E0,-1.495959137E1,1.468146973E0,4.218943417E0,-1.887028456E0,2.990581393E-1,-1.309491873E0
4.237590417E0,-4.472549286E0,-1.497560806E1,1.795815582E0,4.228889417E0,-1.709502101E0,6.975507140E-1,-1.116408110E0
4.247536417E0,-5.059029694E0,-1.449256256E1,1.827848969E0,4.238834417E0,-1.377909064E0,9.838519692E-1,-8.617367744E-1
4.257482417E0,-4.835394745E0,-1.303414536E1,1.129551086E0,4.248780417E0,-1.003598571E0,1.082559943E0,-6.446867585E-1
4.267427417E0,-3.713627472E0,-1.114477432E1,1.863624573E-1,4.258726417E0,-7.284429073E-1,9.384496212E-1,-4.780689776E-1
4.277373417E0,-2.527943115E0,-9.802964630E0,-7.327262878E-1,4.268671417E0,-6.677399278E-1,6.926438212E-1,-3.718213737E-1
4.287319417E0,-1.905537415E0,-9.333091736E0,-1.865720215E0,4.278617417E0,-7.296884656E-1,3.768621683E-1,-1.769712120E-1
4.297265417E0,1.332229614E-2,-8.649762726E0,-2.894680481E0,4.288563417E0,-8.503677845E-1,1.077942736E-2,4.496167973E-2
4.307210417E0,3.641477509E0,-8.158334656E0,-3.257076874E0,4.298509417E0,-9.269341826E-1,-6.595382094E-1,-1.340788789E-2
4.317156417E0,5.197192383E0,-8.321046295E0,-3.740870819E0,4.308454417E0,-1.020398021E0,-1.237958193E0,-2.646464407E-1
4.327102417E0,5.484295349E0,-8.308771820E0,-3.620221710E0,4.318400417E0,-1.148408413E0,-1.373311758E0,-3.865060508E-1
4.337048417E0,5.371579742E0,-8.141270142E0,-3.044967957E0,4.328346417E0,-1.168308854E0,-1.347765684E0,-4.102396965E-1
4.346993417E0,4.810396729E0,-7.850574646E0,-2.572849731E0,4.338292417E0,-1.168758869E0,-1.476978183E0,-4.100045264E-1
4.356939417E0,4.026327209E0,-7.330106964E0,-1.727707214E0,4.348237417E0,-1.144793630E0,-1.667512059E0,-3.953316510E-1
4.366885417E0,3.410208435E0,-6.824308777E0,-1.125808868E0,4.358183417E0,-1.062325954E0,-1.862042189E0,-4.415611923E-1
4.376830417E0,2.632276154E0,-6.600374451E0,-8.015830994E-1,4.368129417E0,-9.445375204E-1,-1.928064227E0,-5.372993350E-1
4.386776417E0,1.647174683E0,-6.717281342E0,-7.068301392E-1,4.378074417E0,-8.140633702E-1,-1.957397342E0,-5.734927654E-1
4.396722417E0,7.777825928E-1,-6.812633057E0,-4.836442566E-1,4.388020417E0,-6.576030254E-1,-1.903200746E0,-5.530398488E-1
4.406668417E0,1.646575928E-1,-6.784641266E0,-3.674858093E-1,4.397966417E0,-4.318660200E-1,-1.785859466E0,-5.535922050E-1
4.416613417E0,-2.417472839E-1,-6.747069397E0,-4.484674072E-1,4.407912417E0,-1.692614555E-1,-1.723708510E0,-5.532418489E-1
4.426559417E0,-3.381468201E-1,-6.321204987E0,-5.551954651E-1,4.417857417E0,1.001809314E-1,-1.734305978E0,-5.656790733E-1
4.436505417E0,-4.002676392E-1,-5.896388397E0,-5.824388123E-1,4.427803417E0,3.293316960E-1,-1.798145771E0,-6.192153692E-1
4.446450417E0,-5.628295898E-1,-5.541476440E0,-6.924600220E-1,4.437749417E0,5.094026923E-1,-1.871129751E0,-6.537637711E-1
4.456396417E0,-6.167175293E-1,-5.216651917E0,-8.644523621E-1,4.447694417E0,6.563617587E-1,-1.889442921E0,-6.289822459E-1
4.466342417E0,-5.771997070E-1,-4.916975098E0,-1.138382721E0,4.457640417E0,7.903941274E-1,-1.770610332E0,-5.691623092E-1
4.476288417E0,-5.170248413E-1,-4.633015594E0,-1.697320404E0,4.467586417E0,9.091774821E-1,-1.473514915E0,-5.140348673E-1
4.486233417E0,-5.499563599E-1,-4.656217346E0,-2.620151367E0,4.477532417E0,9.883719087E-1,-1.096423030E0,-4.572243094E-1
4.496179417E0,-5.405259705E-1,-5.211562500E0,-3.447181549E0,4.487477417E0,9.787480831E-1,-7.819775939E-1,-3.591909409E-1
4.506125417E0,-2.447410583E-1,-6.027515717E0,-3.757486267E0,4.497423417E0,9.502575994E-1,-5.176159739E-1,-2.328979969E-1
4.516070417E0,3.100053406E-1,-7.076833649E0,-3.758085022E0,4.507369417E0,9.329004884E-1,-2.885006070E-1,-1.079134345E-1
4.526016417E0,1.405128021E0,-7.863597565E0,-3.648063812E0,4.517314417E0,9.415879846E-1,-1.166739911E-1,1.346146129E-2
4.535962417E0,2.304158478E0,-8.800648956E0,-4.686604156E0,4.527260417E0,9.423546195E-1,-2.999937534E-1,5.868484825E-2
4.545908417E0,2.682721252E0,-9.873617706E0,-4.968617706E0,4.537206417E0,7.960831523E-1,-8.643761873E-1,3.790438641E-3
4.555853417E0,2.377955017E0,-1.053284683E1,-4.434378662E0,4.547152417E0,6.500518322E-1,-1.351966143E0,-8.498588204E-2
4.565799417E0,6.360273743E-1,-1.147588577E1,-4.009861450E0,4.557097417E0,5.905903578E-1,-1.361318588E0,-4.447414726E-2
4.575745417E0,-5.736071777E-1,-1.286574554E1,-4.794679413E0,4.567043417E0,5.073895454E-1,-1.155229211E0,1.002469212E-1
4.585690417E0,-1.031954041E0,-1.467593124E1,-5.226830750E0,4.576989417E0,2.991807163E-1,-1.192763805E0,1.702640951E-1
4.595636417E0,-9.407936096E-1,-1.455812622E1,-4.399052124E0,4.586934417E0,1.320553571E-1,-1.146125197E0,1.490426958E-1
4.605582417E0,-2.395019531E-1,-1.264705032E1,-5.154830475E0,4.596880417E0,1.033653915E-1,-8.259847760E-1,1.265477687E-1
4.615528417E0,8.589138794E-1,-1.073013657E1,-7.643106079E0,4.606826417E0,-2.747946419E-2,-3.793843687E-1,6.754134595E-2
4.625473417E0,1.899100800E0,-9.137598267E0,-1.020383102E1,4.616772417E0,-2.933694720E-1,-7.277943194E-2,-3.606041148E-2
4.635419417E0,1.895508270E0,-8.192613373E0,-1.181627792E1,4.626717417E0,-4.802021682E-1,1.159875840E-1,-1.491716951E-1
4.645365417E0,2.540217590E-1,-9.157357178E0,-9.848320312E0,4.636663417E0,-1.036880851E0,1.935633421E-1,-2.946740389E-1
4.655310417E0,-1.695673828E0,-1.220965988E1,-4.934189301E0,4.646609417E0,-1.737824798E0,6.192952991E-1,-3.689191639E-1
4.665256417E0,-5.701643372E-1,-1.579889603E1,-2.522404633E0,4.656554417E0,-1.811450481E0,7.188608050E-1,-2.304725945E-1
4.675202417E0,2.414628754E0,-1.786864197E1,1.197509766E-2,4.666500417E0,-1.424471736E0,2.882550359E-1,-1.119139344E-1
4.685148417E0,1.777104492E0,-1.939561661E1,2.483784943E0,4.676446417E0,-1.011674047E0,1.608432829E-1,-3.261990473E-2
4.695093417E0,6.391708374E-2,-1.784558990E1,2.575693817E0,4.686392417E0,-5.235281587E-1,2.735366225E-1,2.692131400E-1
4.705039417E0,-5.233117676E-1,-1.286035675E1,1.714235229E0,4.696337417E0,-1.875610650E-1,4.580675662E-1,4.093167186E-1
4.714985417E0,-1.487307129E0,-9.595346375E0,7.213499451E-1,4.706283417E0,-1.241053641E-1,5.383771658E-1,4.017532170E-1
4.724930417E0,-1.939965820E0,-7.514074402E0,6.673123169E-1,4.716229417E0,-2.602833882E-2,4.164813757E-1,5.448232889E-1
4.734876417E0,-1.327289886E0,-6.425238647E0,1.223256226E0,4.726174417E0,2.856208384E-2,4.186351597E-1,7.933614254E-1
4.744822417E0,3.746708679E-1,-6.367608490E0,1.980232086E0,4.736120417E0,8.370070159E-2,5.270503163E-1,9.814088345E-1
4.754768417E0,1.822460175E0,-6.744674377E0,1.966610413E0,4.746066417E0,1.626050025E-1,6.873732805E-1,1.082837224E0
4.764713417E0,3.423830109E0,-7.367080078E0,1.498683472E0,4.756012417E0,3.541339338E-1,7.629362345E-1,1.115988016E0
4.774659417E0,5.356461182E0,-8.233628082E0,1.219963074E0,4.765957417E0,5.911298990E-1,4.755969942E-1,1.050899982E0
4.784605417E0,6.529272308E0,-9.935289459E0,1.020128632E0,4.775903417E0,7.366474271E-1,-5.256536230E-2,8.958332539E-1
4.794550417E0,6.822811890E0,-1.151211044E1,8.575666809E-1,4.785849417E0,8.854278326E-1,-4.912309051E-1,6.353429556E-1
4.804496417E0,6.843768311E0,-1.171523804E1,6.050418091E-1,4.795794417E0,1.079045296E0,-7.024605870E-1,3.010278344E-1
4.814442417E0,5.868845673E0,-1.087623276E1,6.045927429E-1,4.805740417E0,1.239371896E0,-5.781761408E-1,-8.083188534E-2
4.824388417E0,3.660637665E0,-1.011491592E1,3.860472107E-1,4.815686417E0,1.371071815E0,-2.200334668E-1,-4.057013094E-1
4.834333417E0,9.529183960E-1,-9.782008209E0,2.215393066E-2,4.825632417E0,1.454986334E0,2.270731926E-1,-5.884881616E-1
4.844279417E0,-1.059197388E0,-9.516610107E0,-8.399034119E-1,4.835577417E0,1.503200173E0,5.773190856E-1,-6.660149097E-1
4.854225417E0,-2.583178253E0,-9.459878082E0,-1.976190491E0,4.845523417E0,1.486736655E0,6.771352887E-1,-6.700426936E-1
4.864170417E0,-3.996838531E0,-9.649084625E0,-2.494712219E0,4.855469417E0,1.350708842E0,7.343775630E-1,-5.902064443E-1
4.874116417E0,-5.082530823E0,-9.272467804E0,-2.371967468E0,4.865414417E0,1.108356833E0,9.414778948E-1,-3.887908459E-1
4.884062417E0,-5.226830750E0,-8.153394928E0,-1.791474609E0,4.875360417E0,8.418806195E-1,1.148279548E0,-1.025279164E-1
4.894008417E0,-4.226610718E0,-6.931934967E0,-9.452842712E-1,4.885306417E0,6.418377757E-1,1.252635360E0,1.423068792E-1
4.903953417E0,-2.697690125E0,-6.330785065E0,-2.293231201E-1,4.895252417E0,5.094208717E-1,1.249664903E0,2.787648439E-1
4.913899417E0,-1.234183502E0,-6.432423706E0,7.229965210E-1,4.905197417E0,4.428306818E-1,1.223027110E0,3.475905061E-1
4.923845417E0,-7.873626709E-2,-7.125931549E0,1.743125153E0,4.915143417E0,4.684340656E-1,1.265374899E0,4.098829329E-1
4.933790417E0,1.159189453E0,-7.889194336E0,2.253563690E0,4.925089417E0,5.614864230E-1,1.257740617E0,4.541249275E-1
4.943736417E0,2.437082062E0,-8.625363464E0,2.834355927E0,4.935034417E0,7.563161254E-1,1.163712978E0,4.005607665E-1
4.953682417E0,3.116369476E0,-9.513915710E0,2.639161835E0,4.944980417E0,1.010886073E0,1.215489864E0,3.007760048E-1
4.963628417E0,3.090922394E0,-1.007943970E1,1.041683807E0,4.954926417E0,1.197518468E0,1.321177959E0,2.340600938E-1
4.973573417E0,2.501448212E0,-1.013916550E1,-1.169368286E0,4.964872417E0,1.194782376E0,1.330164313E0,2.319546789E-1
4.983519083E0,1.628613281E0,-9.908345490E0,-2.291884003E0,4.974817417E0,1.037696123E0,1.258208871E0,2.552685142E-1
4.993465083E0,8.105644226E-1,-9.618697815E0,-2.531236267E0,4.984763083E0,8.376187086E-1,1.250665903E0,3.518783748E-1
5.003410083E0,4.731660461E-1,-9.265731812E0,-2.209555206E0,4.994709083E0,6.089639664E-1,1.216313004E0,4.710239470E-1
5.013356083E0,3.451821899E-1,-8.957522736E0,-1.157393188E0,5.004654083E0,4.525615275E-1,1.139366269E0,5.948871374E-1
5.023302083E0,4.704716492E-1,-8.605305176E0,-3.370989990E-1,5.014600083E0,4.082742333E-1,1.094849706E0,7.072643042E-1
5.033248083E0,7.244934082E-1,-8.337212677E0,-2.847079468E-1,5.024546083E0,4.252808392E-1,1.047994137E0,8.015522957E-1
5.043193083E0,1.189875641E0,-8.353678436E0,-7.923023987E-1,5.034492083E0,4.410736561E-1,9.186317921E-1,8.666998744E-1
5.053139083E0,1.860780487E0,-8.481063538E0,-1.383572845E0,5.044437083E0,4.213192165E-1,7.616874576E-1,8.880431056E-1
5.063085083E0,2.541115723E0,-8.716523895E0,-1.684147797E0,5.054383083E0,3.483917415E-1,6.854512691E-1,8.562731743E-1
5.073030083E0,3.326831818E0,-8.854536896E0,-1.832189941E0,5.064329083E0,2.704777420E-1,6.990101337E-1,8.046045899E-1
5.082976083E0,4.143383789E0,-8.568182373E0,-1.958078156E0,5.074274083E0,2.099699229E-1,7.550022602E-1,7.214500904E-1
5.092922083E0,4.755610657E0,-8.278534698E0,-2.032024384E0,5.084220083E0,1.479460895E-1,7.755380869E-1,5.720335245E-1
5.102868083E0,4.726571045E0,-8.380772095E0,-2.063309326E0,5.094166083E0,1.369903833E-1,7.737985253E-1,3.813456595E-1
5.112813083E0,4.120780792E0,-8.814120941E0,-2.578088837E0,5.104112083E0,1.690562963E-1,6.750332117E-1,2.079950124E-1
5.122759083E0,3.227139130E0,-9.113498383E0,-2.270478516E0,5.114057083E0,1.525276452E-1,5.100796819E-1,1.163942516E-1
5.132705083E0,2.837499390E0,-9.138945465E0,-1.248403931E0,5.124003083E0,1.514973938E-1,4.690065086E-1,1.117551550E-1
5.142650083E0,3.684138794E0,-9.160051575E0,-7.906558228E-1,5.133949083E0,2.281037420E-1,3.497610688E-1,1.254347563E-1
5.152596083E0,5.333409119E0,-9.452693024E0,-8.843609619E-1,5.143894083E0,3.533933759E-1,4.651286453E-2,5.942284688E-2
5.162542083E0,6.435118103E0,-9.825867004E0,-1.138682098E0,5.153840083E0,4.544302523E-1,-1.755351126E-1,-4.218100756E-2
5.172488083E0,6.776707764E0,-1.019155655E1,-1.506018219E0,5.163786083E0,5.168316960E-1,-2.895479500E-1,-1.209050715E-1
5.182433083E0,6.557114410E0,-1.074181229E1,-1.931433563E0,5.173732083E0,5.320529938E-1,-3.984347284E-1,-1.824648380E-1
5.192379083E0,6.082750854E0,-1.142768600E1,-1.910177765E0,5.183677083E0,5.029776692E-1,-4.935804307E-1,-2.468243986E-1
5.202325083E0,5.502257996E0,-1.243344452E1,-1.535806274E0,5.193623083E0,4.998102188E-1,-5.965017676E-1,-3.604181707E-1
5.212270083E0,4.606520691E0,-1.351449646E1,-1.499880981E0,5.203569083E0,5.345267057E-1,-6.998845935E-1,-4.886234403E-1
5.222216083E0,3.319497070E0,-1.405696838E1,-1.345102844E0,5.213514083E0,4.649476409E-1,-7.987238169E-1,-5.941967368E-1
5.232162083E0,1.674268341E0,-1.395577881E1,-9.657916260E-1,5.223460083E0,3.300277293E-1,-8.819684982E-1,-6.850382090E-1
5.242107083E0,2.118095398E-1,-1.378633118E1,-1.141975250E0,5.233406083E0,1.798307896E-1,-1.116353273E0,-7.748101950E-1
5.252053083E0,-4.743635559E-1,-1.372061783E1,-1.767823792E-1,5.243351083E0,-1.472715475E-2,-1.417394996E0,-8.104544878E-1
5.261999083E0,-6.523434448E-1,-1.310629532E1,1.059496765E0,5.253297083E0,-2.444674075E-1,-1.545587063E0,-8.264289498E-1
5.271945083E0,-1.243164825E0,-1.213182175E1,1.766326904E0,5.263243083E0,-5.169693828E-1,-1.672339678E0,-8.009924293E-1
5.281890083E0,-2.118394775E0,-1.149280060E1,2.339485016E0,5.273189083E0,-7.705606222E-1,-1.743522286E0,-7.393155098E-1
5.291836083E0,-2.711760864E0,-1.114058304E1,2.216291199E0,5.283134083E0,-9.461886883E-1,-1.734109640E0,-6.740944386E-1
5.301782083E0,-3.463946686E0,-1.116019226E1,7.188052368E-1,5.293080083E0,-1.195207000E0,-1.532307506E0,-6.001829505E-1
5.311727083E0,-3.814367981E0,-1.190654022E1,-1.369651794E0,5.303026083E0,-1.547651410E0,-1.262936831E0,-5.529214740E-1
5.321673083E0,-3.447929993E0,-1.370325394E1,-1.749711456E0,5.312971083E0,-1.964534044E0,-8.357979655E-1,-6.037532091E-1
5.331619083E0,-2.982098694E0,-1.460857132E1,-3.499722290E-1,5.322917083E0,-2.222835779E0,-2.836143076E-1,-7.208572626E-1
5.341565083E0,-2.954855347E0,-1.458551926E1,1.590742035E0,5.332863083E0,-2.222148180E0,3.145053089E-1,-8.587775826E-1
5.351510083E0,-3.847898254E0,-1.477307922E1,3.103945312E0,5.342809083E0,-2.106365442E0,1.003186345E0,-9.502872825E-1
5.361456083E0,-5.032983856E0,-1.454615112E1,3.292403412E0,5.352754083E0,-1.856960893E0,1.716373920E0,-8.317039013E-1
5.371402083E0,-5.122048645E0,-1.349443817E1,1.980381775E0,5.362700083E0,-1.508600354E0,2.120034218E0,-5.886560678E-1
5.381347083E0,-4.615651703E0,-1.213107330E1,4.748126221E-1,5.372646083E0,-1.209219575E0,2.106793642E0,-3.066899180E-1
5.391293083E0,-3.031046906E0,-1.075348801E1,-1.142873383E0,5.382591083E0,-1.009899139E0,1.706588387E0,-8.317127824E-3
5.401239083E0,-1.004261627E0,-9.409283295E0,-2.339934082E0,5.392537083E0,-9.395825863E-1,1.087770224E0,1.853250414E-1
5.411184083E0,9.550140381E-2,-9.437724152E0,-2.733615417E0,5.402483083E0,-9.664416909E-1,5.612451434E-1,3.101196289E-1
5.421130083E0,2.253414001E0,-9.333091736E0,-3.238964539E0,5.412428083E0,-1.016977549E0,4.219474271E-2,3.854442239E-1
5.431076083E0,4.722230072E0,-9.427395630E0,-3.079995117E0,5.422374083E0,-1.018176556E0,-6.178653836E-1,2.568918765E-1
5.441022083E0,5.122797089E0,-9.480834503E0,-3.277733917E0,5.432320083E0,-1.019958735E0,-9.770547152E-1,1.237260997E-1
5.450967083E0,5.156327362E0,-8.835975494E0,-3.744014282E0,5.442266083E0,-1.086444616E0,-1.031658292E0,7.383880764E-2
5.460913083E0,5.084476776E0,-7.938441925E0,-3.525618439E0,5.452211083E0,-1.186403751E0,-1.048829317E0,3.435105085E-2
5.470859083E0,4.750670929E0,-7.140601044E0,-2.409090271E0,5.462157083E0,-1.241944671E0,-1.244445920E0,-9.482487291E-2
5.480804083E0,4.074227600E0,-6.786437531E0,-9.626481628E-1,5.472103083E0,-1.147554517E0,-1.468732595E0,-2.740809321E-1
5.490750083E0,2.962040405E0,-6.500232697E0,-6.798861694E-1,5.482048083E0,-9.906146526E-1,-1.533076167E0,-4.431197643E-1
5.500696083E0,1.566941528E0,-6.397396545E0,-1.143771515E0,5.491994083E0,-8.945110440E-1,-1.414386988E0,-4.540594816E-1
5.510642083E0,5.343887329E-1,-5.955964508E0,-1.120120697E0,5.501940083E0,-8.150493503E-1,-1.287276983E0,-3.593252897E-1
5.520587083E0,6.768923950E-1,-5.383704529E0,-8.711883545E-1,5.511886083E0,-6.955237389E-1,-1.197959542E0,-3.096640110E-1
5.530533083E0,4.816983032E-1,-5.123545532E0,-1.077908478E0,5.521831083E0,-5.925433636E-1,-9.596999884E-1,-4.665845037E-1
5.540479083E0,-2.168989563E-1,-4.812342682E0,-1.189576263E0,5.531777083E0,-4.812003374E-1,-7.710632086E-1,-5.617818832E-1
5.550424083E0,-4.415817261E-1,-4.509821777E0,-8.427474976E-1,5.541723083E0,-3.200751841E-1,-7.875151634E-1,-6.523635387E-1
5.560370083E0,-8.156538391E-1,-4.611610107E0,-3.282673645E-1,5.551668083E0,-1.053245515E-1,-9.705307484E-1,-6.925671101E-1
5.570316083E0,-1.041085052E0,-4.610113220E0,-2.152523804E-1,5.561614083E0,1.406686455E-1,-1.138451576E0,-6.527604461E-1
5.580262083E0,-9.279203796E-1,-4.632117462E0,-5.275030518E-1,5.571560083E0,4.000466764E-1,-1.174151421E0,-5.674673915E-1
5.590207083E0,-6.207591248E-1,-4.809199219E0,-1.059796143E0,5.581506083E0,6.515935063E-1,-1.073316336E0,-4.695638418E-1
5.600153083E0,-2.686912537E-1,-5.044809265E0,-1.709295502E0,5.591451083E0,8.547732830E-1,-8.496052623E-1,-3.678230941E-1
5.610099083E0,-6.601272583E-2,-5.405708771E0,-2.554138641E0,5.601397083E0,9.855064750E-1,-5.710859299E-1,-3.022691607E-1
5.620044083E0,-6.900650024E-2,-5.823489990E0,-3.174598389E0,5.611343083E0,1.034422636E0,-3.314615786E-1,-2.424841225E-1
5.629990083E0,1.227447510E-2,-6.101162567E0,-3.438200226E0,5.621288083E0,1.026548862E0,-1.333605349E-1,-1.766527444E-1
5.639936083E0,3.829037476E-1,-6.328240356E0,-3.515589294E0,5.631234083E0,1.026290298E0,2.156086639E-2,-1.033005118E-1
5.649881083E0,1.155896301E0,-6.597230988E0,-3.667673035E0,5.641180083E0,1.032449007E0,1.256678104E-1,-7.760329545E-2
5.659827083E0,1.857187958E0,-7.561675415E0,-4.657115479E0,5.651125083E0,1.036940694E0,1.143333986E-1,-8.143451810E-2
5.669773083E0,1.812730408E0,-9.717642059E0,-6.072272644E0,5.661071083E0,8.881478906E-1,-2.761199176E-1,-9.545726329E-2
5.679719083E0,2.179018707E0,-1.135838013E1,-5.695805511E0,5.671017083E0,7.060042024E-1,-6.632995605E-1,-1.139558479E-1
5.689664083E0,2.605481873E0,-1.230785568E1,-6.576573944E0,5.680963083E0,5.858880877E-1,-8.619686365E-1,-1.357311904E-1
5.699610083E0,1.435065765E0,-1.399484756E1,-6.422394562E0,5.690908083E0,4.718368948E-1,-1.045798779E0,-9.754970670E-2
5.709556083E0,-5.361849976E-1,-1.608914246E1,-4.989873505E0,5.700854083E0,2.872325778E-1,-8.879384995E-1,-9.428794496E-3
5.719501083E0,-1.785187683E0,-1.680704956E1,-4.097429352E0,5.710800083E0,1.571776420E-1,-5.910599232E-1,1.313512325E-1
5.729447083E0,-1.468146973E0,-1.503668106E1,-4.895270233E0,5.720745083E0,1.307921708E-1,-4.167675972E-1,1.830667108E-1
5.739393083E0,-3.167413330E-1,-1.259974869E1,-6.558461609E0,5.730691083E0,7.924827933E-2,-1.874912679E-1,1.512794942E-1
5.749338083E0,1.108594666E0,-1.049377808E1,-8.405470734E0,5.740637083E0,-9.710609913E-2,2.450382113E-1,7.421177626E-2
5.759284083E0,2.142943726E0,-8.483608246E0,-1.011042526E1,5.750582083E0,-2.227473855E-1,8.181233406E-1,3.115325235E-2
5.769230083E0,1.345551910E0,-8.378676453E0,-1.085273163E1,5.760528083E0,-6.121920943E-1,9.313677549E-1,-3.454909101E-2
5.779176083E0,-7.960446167E-1,-1.004875351E1,-8.031099243E0,5.770474083E0,-1.165258169E0,8.504963517E-1,-8.651454747E-2
5.789121083E0,-1.345102844E0,-1.219693634E1,-5.731730804E0,5.780420083E0,-1.496782064E0,7.089660764E-1,5.631005391E-2
5.799067083E0,1.128802643E0,-1.438882828E1,-3.639980621E0,5.790365083E0,-1.533081770E0,2.334187180E-1,2.571081519E-1
5.809013083E0,2.853965149E0,-1.692141174E1,1.222956848E-1,5.800311083E0,-1.373821139E0,-1.559076309E-1,2.503022254E-1
5.818958083E0,1.411265259E0,-1.921194855E1,3.235372009E0,5.810257083E0,-8.575870395E-1,-2.356487960E-1,3.386270404E-1
5.828904083E0,-1.221459961E-1,-1.801024750E1,3.447031860E0,5.820202083E0,-2.343511134E-1,5.995580181E-2,6.011503935E-1
5.838850083E0,-1.558409271E0,-1.490405685E1,1.686842194E0,5.830148083E0,5.141140521E-2,2.727021575E-1,6.919953227E-1
5.848796083E0,-2.214644623E0,-1.183034866E1,6.415658569E-1,5.840094083E0,1.420231909E-1,2.183402181E-1,7.531585693E-1
5.858741083E0,-1.315165100E0,-8.763226776E0,4.947212219E-1,5.850040083E0,1.324411333E-1,1.789818853E-1,7.920215130E-1
5.868687083E0,-7.424560547E-2,-6.579867096E0,1.173709259E0,5.859985083E0,1.185478047E-1,1.683376133E-1,8.059580326E-1
5.878633083E0,8.640032959E-1,-5.932762756E0,2.739303589E0,5.869931083E0,1.357491612E-1,4.364087582E-1,8.264042139E-1
5.888578083E0,1.478625183E0,-6.653064880E0,3.996539154E0,5.879877083E0,3.185872436E-1,8.743906617E-1,8.777446151E-1
5.898524083E0,2.074086914E0,-7.569608917E0,4.118236084E0,5.889822083E0,5.785149932E-1,1.252833009E0,9.009322524E-1
5.908470083E0,2.995121613E0,-7.961943054E0,3.467539215E0,5.899768083E0,8.559193611E-1,1.396481752E0,8.446250558E-1
5.918415083E0,3.761976929E0,-8.128546600E0,1.750010834E0,5.909714083E0,1.003008127E0,1.118672013E0,7.913951278E-1
5.928361083E0,4.475692749E0,-7.982151031E0,4.662803650E-1,5.919659083E0,1.017072558E0,4.946210384E-1,6.467492580E-1
5.938307083E0,4.267924805E0,-8.038883057E0,6.077362061E-2,5.929605083E0,1.012930512E0,-1.031209305E-1,4.288704097E-1
5.948253083E0,3.552113342E0,-8.468339996E0,4.128414917E-1,5.939551083E0,1.052766919E0,-3.470129073E-1,2.261499912E-1
5.958198083E0,2.455344086E0,-9.174272003E0,3.725752258E-1,5.949497083E0,1.111439586E0,-8.108963817E-2,3.910873458E-2
5.968144083E0,1.257984009E0,-9.685309296E0,-1.505868530E-1,5.959442083E0,1.175707698E0,4.793592393E-1,-1.385777444E-1
5.978089667E0,1.169068909E-1,-9.740394745E0,-1.053209839E0,5.969388083E0,1.199069500E0,9.945623875E-1,-3.111801445E-1
5.988034667E0,-1.479972382E0,-9.726024628E0,-1.832189941E0,5.979333667E0,1.136600256E0,1.292480230E0,-4.480717480E-1
5.997980667E0,-3.395988007E0,-9.710906067E0,-2.268233185E0,5.989278667E0,1.017649055E0,1.480836868E0,-4.681077898E-1
6.007926667E0,-4.554129639E0,-9.082662506E0,-2.365830231E0,5.999224667E0,8.507161736E-1,1.626892328E0,-3.303110898E-1
6.017871667E0,-4.596042480E0,-8.077802124E0,-1.736389160E0,6.009170667E0,6.425738931E-1,1.760165691E0,-1.120860949E-1
6.027817667E0,-3.963457947E0,-7.351362762E0,-8.222401428E-1,6.019115667E0,4.353747964E-1,1.909749866E0,1.082335263E-1
6.037763667E0,-2.449356537E0,-6.921157379E0,-2.887495422E-1,6.029061667E0,2.977247834E-1,1.974820256E0,3.248353601E-1
6.047709667E0,-5.179229736E-1,-6.932833099E0,2.597099304E-1,6.039007667E0,2.216786146E-1,1.857476234E0,4.382891059E-1
6.057654667E0,1.145118713E0,-7.429350586E0,1.394350433E0,6.048953667E0,2.083193958E-1,1.756007433E0,4.632471800E-1
6.067600667E0,2.633473663E0,-7.961344299E0,2.593656464E0,6.058898667E0,3.431404531E-1,1.645266414E0,4.241065085E-1
6.077546667E0,3.582799530E0,-8.817713470E0,3.010539551E0,6.068844667E0,6.168723702E-1,1.602769494E0,3.279466927E-1
6.087491667E0,3.917802887E0,-9.857301636E0,1.877545624E0,6.078790667E0,8.697799444E-1,1.661795378E0,2.536119521E-1
6.097437667E0,3.827690277E0,-1.039767792E1,-1.149609375E-1,6.088735667E0,9.945287704E-1,1.690004110E0,2.297955900E-1
6.107383667E0,3.584745483E0,-1.032358200E1,-1.954785004E0,6.098681667E0,9.765102267E-1,1.582400799E0,2.419778556E-1
6.117328667E0,3.129093018E0,-9.963730316E0,-2.928061066E0,6.108627667E0,8.348796368E-1,1.394478917E0,2.610000074E-1
6.127274667E0,2.464325409E0,-9.547595673E0,-3.014132080E0,6.118572667E0,6.609239578E-1,1.256354809E0,3.030929863E-1
6.137220667E0,1.714384918E0,-9.576186218E0,-2.866239624E0,6.128518667E0,4.747828245E-1,1.150492549E0,3.710296750E-1
6.147166667E0,9.354048157E-1,-9.569899292E0,-2.101929016E0,6.138464667E0,3.099147379E-1,1.055844665E0,4.807319343E-1
6.157111667E0,6.879693604E-1,-9.073082428E0,-1.205293579E0,6.148410667E0,2.314998060E-1,1.016559601E0,6.091172695E-1
6.167057667E0,9.851014709E-1,-8.350534973E0,-5.095404053E-1,6.158355667E0,2.502773702E-1,9.923818707E-1,7.059116364E-1
6.177003667E0,1.394350433E0,-7.715555420E0,-9.325607300E-2,6.168301667E0,3.513661921E-1,9.281139374E-1,7.678005695E-1
6.186948667E0,1.691482544E0,-7.453151093E0,-5.358856201E-1,6.178247667E0,4.663091600E-1,8.399226665E-1,8.062880039E-1
6.196894667E0,2.406545563E0,-7.417076111E0,-1.709295502E0,6.188192667E0,5.189678669E-1,6.997037530E-1,8.185984492E-1
6.206840667E0,3.328628082E0,-7.645351410E0,-2.583178253E0,6.198138667E0,4.920606613E-1,5.773130655E-1,7.717484832E-1
6.216785667E0,3.902684326E0,-8.021219788E0,-2.819087677E0,6.208084667E0,4.032876492E-1,5.640243888E-1,6.793980598E-1
6.226731667E0,4.001628571E0,-8.254883881E0,-2.890938263E0,6.218029667E0,3.001058996E-1,6.198277473E-1,5.764815211E-1
6.236677667E0,3.638633423E0,-8.496331787E0,-2.550246735E0,6.227975667E0,1.966990978E-1,5.872136354E-1,4.590914845E-1
6.246623667E0,2.978206787E0,-9.147028656E0,-1.854343872E0,6.237921667E0,1.792586744E-1,5.241262913E-1,3.489118218E-1
6.256568667E0,2.039359131E0,-1.005848328E1,-1.570384369E0,6.247867667E0,2.284957319E-1,4.333215356E-1,2.617127299E-1
6.266514667E0,1.382225647E0,-1.062834824E1,-1.414708099E0,6.257812667E0,2.762168944E-1,3.336511552E-1,2.268359810E-1
6.276460667E0,1.446442108E0,-1.075558365E1,-9.984237671E-1,6.267758667E0,2.692192197E-1,2.721771002E-1,2.278964967E-1
6.286405667E0,2.221829681E0,-1.062206131E1,-4.767585754E-1,6.277704667E0,2.523019612E-1,3.255987763E-1,2.428493053E-1
6.296351667E0,3.543581085E0,-1.045276337E1,-5.917195129E-1,6.287649667E0,2.949482203E-1,2.955431342E-1,2.262692600E-1
6.306297667E0,4.554129639E0,-1.062086380E1,-9.871971130E-1,6.297595667E0,3.704810739E-1,1.477644593E-1,1.646964699E-1
6.316242667E0,5.080884247E0,-1.107846222E1,-1.622925110E0,6.307541667E0,4.041319788E-1,6.788507104E-2,9.450911731E-2
6.326188667E0,5.474715271E0,-1.163156204E1,-1.974394226E0,6.317486667E0,3.720279038E-1,1.821738109E-2,2.019578218E-2
6.336134667E0,5.845045166E0,-1.228899490E1,-1.828747101E0,6.327432667E0,3.479654491E-1,-4.769106209E-2,-9.770928323E-2
6.346080667E0,5.821394348E0,-1.328562241E1,-1.321302338E0,6.337378667E0,3.354379833E-1,-1.959359646E-1,-2.626102865E-1
6.356025667E0,5.069807281E0,-1.447160614E1,-1.207688599E0,6.347324667E0,3.900071979E-1,-3.316266835E-1,-4.506513178E-1
6.365971667E0,3.382366333E0,-1.480301697E1,-1.390159149E0,6.357269667E0,3.114385903E-1,-4.653742909E-1,-6.004323959E-1
6.375917667E0,1.493893433E0,-1.418450317E1,-1.446741486E0,6.367215667E0,1.513676792E-1,-6.017425060E-1,-6.950574517E-1
6.385862667E0,1.348695374E-1,-1.345581848E1,-1.522034912E0,6.377161667E0,-4.386847094E-2,-9.172051549E-1,-7.356446385E-1
6.395808667E0,-1.686991882E-1,-1.282203644E1,-3.412902832E-2,6.387106667E0,-2.491702288E-1,-1.338409185E0,-7.129158974E-1
6.405754667E0,-1.353186035E-1,-1.235156479E1,1.138981476E0,6.397052667E0,-4.169260859E-1,-1.570411921E0,-7.016558647E-1
6.415699667E0,-6.494993591E-1,-1.203197937E1,1.156045990E0,6.406998667E0,-6.151520610E-1,-1.700559497E0,-7.416962385E-1
6.425645667E0,-1.645977173E0,-1.136032608E1,1.111738129E0,6.416943667E0,-8.630160689E-1,-1.755600810E0,-7.993346453E-1
6.435591667E0,-3.161425781E0,-1.059571609E1,1.077758789E0,6.426889667E0,-1.102657437E0,-1.732037663E0,-7.694108486E-1
6.445536667E0,-4.170028381E0,-1.067490143E1,-1.573228455E-1,6.436835667E0,-1.367493153E0,-1.636891842E0,-6.509800553E-1
6.455482667E0,-4.720733185E0,-1.149833908E1,-1.319057007E0,6.446780667E0,-1.701115131E0,-1.461646080E0,-5.664076805E-1
6.465428667E0,-4.528682556E0,-1.290930496E1,-1.045126648E0,6.456726667E0,-2.017511368E0,-1.122745514E0,-5.203619599E-1
6.475374667E0,-3.952380981E0,-1.320029984E1,5.890251160E-1,6.466672667E0,-2.174146891E0,-5.756747723E-1,-5.792846680E-1
6.485319667E0,-4.198169861E0,-1.311093567E1,2.208956451E0,6.476618667E0,-2.095374584E0,1.351476014E-1,-6.557208896E-1
6.495265667E0,-4.753814392E0,-1.337214249E1,2.413281555E0,6.486563667E0,-2.039721966E0,1.059725523E0,-6.158491373E-1
6.505211667E0,-4.718936920E0,-1.275288025E1,2.129322052E0,6.496509667E0,-1.954927921E0,1.805948973E0,-4.443508387E-1
6.515156667E0,-3.557202759E0,-1.141795624E1,1.945953369E0,6.506455667E0,-1.709756732E0,1.994668007E0,-2.582017481E-1
6.525102667E0,-2.273023224E0,-1.021101608E1,1.172661438E0,6.516400667E0,-1.429272056E0,1.763752937E0,-1.453120708E-1
6.535048667E0,-1.028960266E0,-9.563462677E0,-3.162922668E-1,6.526346667E0,-1.198342681E0,1.442496657E0,-6.017475389E-4
6.544993667E0,3.486250305E-1,-9.403595123E0,-1.861977997E0,6.536292667E0,-1.029097319E0,9.316391945E-1,1.680842936E-1
6.554939667E0,2.236948242E0,-9.741741943E0,-3.051105194E0,6.546237667E0,-9.784216285E-1,2.411307991E-1,2.866229117E-1
6.564885667E0,4.368216248E0,-1.033510803E1,-3.331322479E0,6.556183667E0,-1.018928647E0,-3.829167187E-1,2.387784421E-1
6.574831667E0,5.564977570E0,-1.053434372E1,-3.342249756E0,6.566129667E0,-1.081364274E0,-8.262414336E-1,9.735900909E-2
6.584776667E0,5.283862152E0,-1.018586838E1,-3.598516846E0,6.576075667E0,-1.123385787E0,-9.025896788E-1,1.342088543E-2
6.594722667E0,5.006638641E0,-9.004225616E0,-4.005221100E0,6.586020667E0,-1.192117453E0,-9.269868731E-1,-1.325093955E-2
6.604668667E0,4.043242035E0,-8.022267609E0,-3.128045197E0,6.595966667E0,-1.261391282E0,-1.064891577E0,-5.314332992E-2
6.614613667E0,2.822680206E0,-7.178322601E0,-1.819915466E0,6.605912667E0,-1.236995697E0,-1.181809187E0,-1.233200133E-1
6.624559667E0,2.258204041E0,-6.972799988E0,-1.215322723E0,6.615857667E0,-1.086864710E0,-1.408281326E0,-1.515079588E-1
6.634505667E0,1.811383209E0,-6.859785004E0,-1.568588104E0,6.625803667E0,-9.822491407E-1,-1.371975064E0,-2.608006299E-1
6.644450667E0,1.051413574E0,-6.514453125E0,-1.496288452E0,6.635749667E0,-9.178835154E-1,-1.257121444E0,-3.231430352E-1
6.654396667E0,5.763015747E-1,-6.085594940E0,-1.229692841E0,6.645694667E0,-8.360869288E-1,-1.081375718E0,-3.984178007E-1
6.664342667E0,-8.981323242E-4,-5.886658630E0,-1.150806885E0,6.655640667E0,-7.165977955E-1,-9.378703237E-1,-4.552394748E-1
6.674288667E0,-2.606080627E-1,-5.579946442E0,-1.135688324E0,6.665586667E0,-5.719673634E-1,-8.166531324E-1,-4.523943961E-1
6.684233667E0,-8.771759033E-2,-5.154830475E0,-1.027313690E0,6.675532667E0,-3.970839083E-1,-8.262041807E-1,-4.624775946E-1
6.694179667E0,1.468446350E-1,-4.800217896E0,-7.717950439E-1,6.685477667E0,-1.783781946E-1,-9.415065646E-1,-4.759960771E-1
6.704125667E0,4.408332825E-1,-4.486170959E0,-5.539979553E-1,6.695423667E0,7.376492769E-2,-1.120820045E0,-5.107226968E-1
6.714070667E0,4.260140991E-1,-4.323758698E0,-5.254074097E-1,6.705369667E0,3.476310968E-1,-1.232673883E0,-5.120502710E-1
6.724016667E0,3.567082214E-1,-4.185296631E0,-9.358538818E-1,6.715314667E0,6.215773225E-1,-1.195065379E0,-4.733577073E-1
6.733962667E0,2.285746765E-1,-4.360133057E0,-1.656605072E0,6.725260667E0,8.465838432E-1,-9.918071032E-1,-4.143833518E-1
6.743907667E0,1.073268127E-1,-4.794080658E0,-2.500101013E0,6.735206667E0,9.921607971E-1,-7.365150452E-1,-3.553214073E-1
6.753853667E0,-1.387614441E-1,-5.359454956E0,-3.243904266E0,6.745151667E0,1.039675117E0,-5.161888003E-1,-3.331391215E-1
6.763799667E0,-6.406677246E-1,-6.441854095E0,-3.822301483E0,6.755097667E0,1.015542030E0,-3.436324596E-1,-2.903098166E-1
6.773745667E0,-9.430389404E-2,-7.314988403E0,-4.410428467E0,6.765043667E0,9.839888811E-1,-2.737543285E-1,-2.028662413E-1
6.783690667E0,7.382647705E-1,-7.914641418E0,-4.668791199E0,6.774989667E0,9.491607547E-1,-3.095578849E-1,-1.763404459E-1
6.793636667E0,6.417155457E-1,-9.051976318E0,-5.006189575E0,6.784934667E0,9.029557109E-1,-2.871375084E-1,-1.071616411E-1
6.803582667E0,9.851014709E-1,-9.845625916E0,-5.904172211E0,6.794880667E0,6.822168231E-1,-6.085454822E-1,-7.489567995E-2
6.813527667E0,1.484762421E0,-1.036818924E1,-5.584287415E0,6.804826667E0,4.689367712E-1,-9.814577699E-1,-1.149488240E-1
6.823473667E0,1.708247681E0,-1.065484314E1,-5.730383606E0,6.814771667E0,3.057243228E-1,-1.155886531E0,-1.013007984E-1
6.833419667E0,1.192570038E0,-1.144579834E1,-5.511239319E0,6.824717667E0,1.538689882E-1,-1.255369782E0,-8.578735590E-2
6.843364667E0,-1.209484863E-1,-1.350506607E1,-4.382586365E0,6.834663667E0,4.342484474E-2,-1.322511435E0,-2.239732444E-2
6.853310667E0,-8.309220886E-1,-1.495165787E1,-3.030747528E0,6.844608667E0,-2.876786143E-2,-1.218697667E0,6.719514728E-2
6.863256667E0,-3.936813354E-1,-1.433449127E1,-3.307521973E0,6.854554667E0,-2.539813705E-2,-9.227974415E-1,9.031940252E-2
6.873201667E0,2.912942505E-1,-1.277144165E1,-4.987029419E0,6.864500667E0,2.843073942E-2,-5.279558301E-1,1.567153633E-2
6.883147667E0,1.241069183E0,-1.113220047E1,-7.486681366E0,6.874445667E0,-5.217670463E-3,-8.320914954E-2,-1.082335636E-1
6.893093667E0,2.021396484E0,-9.593250732E0,-9.934840393E0,6.884391667E0,-1.483327448E-1,3.752119541E-1,-2.068006098E-1
6.903039667E0,1.808389435E0,-8.871002655E0,-1.140897491E1,6.894337667E0,-3.893866539E-1,6.105281115E-1,-2.484473884E-1
6.912984667E0,4.963677979E-1,-9.683063965E0,-1.010129425E1,6.904283667E0,-9.269012213E-1,3.629747331E-1,-3.342560530E-1
6.922930667E0,-9.265731812E-2,-1.141181900E1,-7.914641418E0,6.914228667E0,-1.378661871E0,2.399220169E-1,-3.362527788E-1
6.932876667E0,1.538650360E0,-1.401909714E1,-6.388864288E0,6.924174667E0,-1.556071043E0,-8.327815682E-2,-2.100796402E-1
6.942821667E0,3.672762451E0,-1.676378952E1,-2.640808411E0,6.934120667E0,-1.551892638E0,-3.096352816E-1,-1.436497718E-1
6.952767667E0,2.586172028E0,-1.961925156E1,1.664388885E0,6.944065667E0,-1.263034701E0,-3.563990593E-1,-1.450300962E-1
6.962713667E0,-1.893562317E-1,-2.001053787E1,3.639232178E0,6.954011667E0,-6.786270142E-1,-3.472003639E-1,8.142601699E-2
6.972658667E0,-1.392554169E0,-1.545146851E1,3.133733368E0,6.963957667E0,-1.726347208E-1,-1.872157604E-1,3.347989023E-1
6.982605292E0,-1.917811890E0,-1.024319916E1,2.289189606E0,6.973902667E0,1.151879877E-1,6.118582189E-2,4.181523323E-1
6.992551292E0,-2.376458130E0,-7.329508209E0,1.107995911E0,6.983849292E0,3.064074814E-1,4.520241618E-1,5.119432807E-1
7.002496292E0,-1.766027527E0,-5.843847656E0,2.225871277E-1,6.993795292E0,3.981791139E-1,7.038273215E-1,6.252704859E-1
7.012442292E0,-1.071621552E0,-5.783523102E0,8.451425171E-1,7.003740292E0,3.691812754E-1,8.197384477E-1,7.494598031E-1
7.022388292E0,-9.849517822E-2,-6.209686890E0,1.128203888E0,7.013686292E0,3.740462959E-1,8.871902823E-1,8.909817934E-1
7.032334292E0,1.209185486E0,-6.725963287E0,1.008452911E0,7.023632292E0,3.894952834E-1,8.417953849E-1,1.007360101E0
7.042279292E0,2.841091919E0,-7.214846649E0,1.197360077E0,7.033578292E0,4.779273868E-1,6.514148116E-1,1.039645076E0
7.052225292E0,4.042493591E0,-7.960146790E0,1.690883789E0,7.043523292E0,6.003257632E-1,3.486027420E-1,9.859825969E-1
7.062171292E0,4.891078949E0,-8.862919464E0,1.609453125E0,7.053469292E0,7.181403041E-1,-6.199546531E-2,9.014565349E-1
7.072116292E0,5.000800781E0,-9.736802216E0,1.417402496E0,7.063415292E0,8.475241661E-1,-6.025087833E-1,7.553278208E-1
7.082062292E0,5.014422455E0,-9.823621674E0,1.371747437E0,7.073360292E0,1.042849660E0,-9.602429867E-1,5.446339250E-1
7.092008292E0,5.060077515E0,-9.277257843E0,1.057999878E0,7.083306292E0,1.254207969E0,-1.011287570E0,2.488435358E-1
7.101953292E0,4.370311890E0,-9.158404999E0,3.216810608E-1,7.093252292E0,1.383276343E0,-6.963756084E-1,-9.147664905E-2
7.111899292E0,2.567760315E0,-9.430090027E0,-7.747888184E-1,7.103197292E0,1.412754774E0,-1.767628044E-1,-4.218489528E-1
7.121845292E0,-2.404000854E-1,-9.607620850E0,-2.085313568E0,7.113143292E0,1.390044451E0,2.817645967E-1,-6.030989289E-1
7.131790292E0,-2.423909454E0,-9.170380096E0,-3.055595856E0,7.123089292E0,1.322322369E0,5.187949538E-1,-6.372715831E-1
7.141736292E0,-4.024980011E0,-8.769962769E0,-3.279230804E0,7.133034292E0,1.182916999E0,6.779522896E-1,-5.806158185E-1
7.151682292E0,-4.958438873E0,-8.174351349E0,-2.799328766E0,7.142980292E0,9.657614827E-1,8.687491417E-1,-3.914914727E-1
7.161628292E0,-4.486919403E0,-7.315886536E0,-1.852248230E0,7.152926292E0,7.394632697E-1,1.000975728E0,-1.392023116E-1
7.171573292E0,-3.070115662E0,-6.621779938E0,-7.999365234E-1,7.162872292E0,6.201797724E-1,1.018032789E0,4.076478630E-2
7.181519292E0,-1.172811127E0,-6.661447449E0,-4.831951904E-1,7.172817292E0,5.666972995E-1,1.005084157E0,1.004942060E-1
7.191465292E0,5.456153870E-1,-7.240742798E0,-4.760101318E-1,7.182763292E0,5.157760978E-1,9.388566017E-1,1.003131121E-1
7.201410292E0,1.917961578E0,-7.868836670E0,5.927673340E-2,7.192709292E0,5.087640285E-1,9.360758662E-1,6.966251135E-2
7.211356292E0,2.821333008E0,-8.327782288E0,6.536906433E-1,7.202654292E0,5.798065066E-1,9.617253542E-1,-9.898263961E-4
7.221302292E0,3.176544342E0,-8.905281372E0,5.893244934E-1,7.212600292E0,7.089452147E-1,9.420754313E-1,-8.586464822E-2
7.231247292E0,3.182681580E0,-9.676327972E0,1.068777466E-1,7.222546292E0,8.389966488E-1,8.407554626E-1,-1.558860689E-1
7.241193292E0,3.037333832E0,-1.001686981E1,-4.894821167E-1,7.232491292E0,9.255347252E-1,7.671324611E-1,-1.974758804E-1
7.251139292E0,2.504591675E0,-1.017658768E1,-1.413061523E0,7.242437292E0,9.592138529E-1,7.218640447E-1,-1.939932704E-1
7.261084292E0,1.872456207E0,-1.003887405E1,-2.252665558E0,7.252383292E0,9.024806619E-1,7.124504447E-1,-1.447657049E-1
7.271030292E0,1.127605133E0,-9.631271667E0,-2.451452179E0,7.262328292E0,7.811611891E-1,7.150681019E-1,-5.329784006E-2
7.280976292E0,6.451583862E-1,-9.295220490E0,-2.280807037E0,7.272274292E0,6.499364972E-1,7.375611067E-1,7.353829592E-2
7.290922292E0,7.619155884E-1,-8.814270630E0,-1.896705780E0,7.282220292E0,5.560941696E-1,6.570097804E-1,2.076729238E-1
7.300867292E0,9.909393311E-1,-8.334667969E0,-1.325792999E0,7.292166292E0,4.899696708E-1,6.255264878E-1,3.119652867E-1
7.310813292E0,1.185684357E0,-8.072862396E0,-1.012195129E0,7.302111292E0,4.792688191E-1,6.062502861E-1,4.114652574E-1
7.320759292E0,1.502126312E0,-8.182434540E0,-8.457412720E-1,7.312057292E0,5.123813748E-1,5.033174753E-1,5.049617290E-1
7.330704292E0,1.865420837E0,-8.446186066E0,-1.056053925E0,7.322003292E0,5.516416430E-1,3.472905755E-1,5.789619088E-1
7.340650292E0,2.194586334E0,-8.887019348E0,-1.822310486E0,7.331948292E0,5.567043424E-1,1.417587996E-1,6.189888716E-1
7.350596292E0,2.461181946E0,-9.403595123E0,-2.223476257E0,7.341894292E0,4.677592814E-1,-2.958471701E-2,6.409748793E-1
7.360541292E0,2.818339233E0,-9.619296570E0,-1.989063721E0,7.351840292E0,3.489449322E-1,-1.099980399E-1,6.376628876E-1
7.370487292E0,2.920127563E0,-9.508227539E0,-1.185384979E0,7.361785292E0,2.474965900E-1,-9.608755261E-2,5.857352614E-1
7.380433292E0,2.832110596E0,-9.207353210E0,-4.540058899E-1,7.371731292E0,2.070017308E-1,-3.649563342E-2,5.131581426E-1
7.390378292E0,2.708767090E0,-9.118737488E0,-2.604583740E-1,7.381677292E0,2.746582925E-1,-9.692246094E-3,4.293663502E-1
7.400324292E0,2.265987854E0,-9.477241974E0,-5.641767883E-1,7.391622292E0,4.137833118E-1,2.168381959E-2,3.309669793E-1
7.410270292E0,1.587598572E0,-9.852511597E0,-1.151106262E0,7.401568292E0,4.787013233E-1,5.869882926E-2,2.544453144E-1
7.420216292E0,1.162332916E0,-9.800719299E0,-1.409768372E0,7.411514292E0,4.648783207E-1,1.237437800E-1,2.332626879E-1
7.430161292E0,1.073268127E0,-9.648336182E0,-1.114133148E0,7.421460292E0,4.188692868E-1,2.693582177E-1,2.428929359E-1
7.440107292E0,1.840871887E0,-9.657467194E0,-1.226250000E0,7.431405292E0,3.532642424E-1,4.201587141E-1,2.604804635E-1
7.450053292E0,3.594624939E0,-9.791288910E0,-1.371298370E0,7.441351292E0,3.089617491E-1,3.018991649E-1,2.414559126E-1
7.459998292E0,5.035977631E0,-1.016356476E1,-9.246272278E-1,7.451297292E0,3.524387181E-1,1.412113160E-1,1.934098750E-1
7.469944292E0,5.838309174E0,-1.054078033E1,-8.601113892E-1,7.461242292E0,4.170275629E-1,4.433616251E-2,1.412036717E-1
7.479890292E0,5.978268127E0,-1.075528427E1,-9.111552429E-1,7.471188292E0,4.715891480E-1,-2.191665769E-2,7.116288692E-2
7.489835292E0,5.290747833E0,-1.096350128E1,-1.048868866E0,7.481134292E0,4.984684289E-1,-3.188886493E-2,2.723643091E-3
7.499781292E0,4.599036255E0,-1.136601425E1,-8.029302979E-1,7.491079292E0,5.030882955E-1,1.928220037E-3,-7.662359625E-2
7.509727292E0,3.665427704E0,-1.221085739E1,-1.186881866E0,7.501025292E0,5.877915025E-1,-2.084926330E-2,-2.673839629E-1
7.519672292E0,2.424957275E0,-1.267908371E1,-2.136956177E0,7.510971292E0,5.672683120E-1,-6.614100933E-2,-3.955341876E-1
7.529618292E0,1.574276276E0,-1.266261795E1,-2.326462097E0,7.520916292E0,3.059395254E-1,-7.202153653E-2,-4.728055596E-1
7.539564292E0,9.589059448E-1,-1.249556534E1,-1.565145264E0,7.530862292E0,3.107258584E-3,-8.555942029E-2,-5.542737246E-1
7.549510292E0,7.696994019E-1,-1.236877899E1,-5.501060486E-1,7.540808292E0,-2.024893016E-1,-3.108191490E-1,-6.118675470E-1
7.559455292E0,1.053958282E0,-1.251277954E1,8.915460205E-1,7.550754292E0,-3.541067839E-1,-6.180371046E-1,-6.350375414E-1
7.569401292E0,1.205592957E0,-1.223016724E1,1.927691345E0,7.560699292E0,-5.013612509E-1,-8.172197342E-1,-6.525142789E-1
7.579347292E0,5.373825073E-1,-1.201805832E1,1.977687378E0,7.570645292E0,-6.493840814E-1,-9.910617471E-1,-7.207136750E-1
7.589292292E0,-5.942642212E-1,-1.174906769E1,1.672172699E0,7.580591292E0,-8.045779467E-1,-1.159023643E0,-7.957599163E-1
7.599238292E0,-1.635648651E0,-1.143891266E1,1.277892609E0,7.590536292E0,-9.802368879E-1,-1.285854459E0,-8.528105021E-1
7.609184292E0,-2.708916779E0,-1.144834305E1,9.265731812E-1,7.600482292E0,-1.195618510E0,-1.269699216E0,-8.461267948E-1
7.619129292E0,-3.307372284E0,-1.194620773E1,7.065307617E-2,7.610428292E0,-1.431603670E0,-9.905508757E-1,-8.047938943E-1
7.629075292E0,-3.334016876E0,-1.296798294E1,-4.132905579E-1,7.620373292E0,-1.659811854E0,-4.956279397E-1,-8.169378638E-1
7.639021292E0,-3.588787079E0,-1.347512833E1,-3.191363525E-1,7.630319292E0,-1.777191162E0,8.535277098E-2,-8.695539236E-1
7.648966292E0,-3.721860352E0,-1.361523697E1,-2.110610962E-1,7.640265292E0,-1.772719145E0,5.848270059E-1,-9.166415334E-1
7.658912292E0,-3.857478333E0,-1.387359970E1,5.418731689E-2,7.650210292E0,-1.780062199E0,1.127853870E0,-9.437010288E-1
7.668858292E0,-4.212240601E0,-1.390563309E1,6.306385803E-1,7.660156292E0,-1.723815203E0,1.651859641E0,-8.807713389E-1
7.678803292E0,-4.399501190E0,-1.352123245E1,5.448669434E-1,7.670102292E0,-1.509247303E0,1.950449586E0,-6.497355103E-1
7.688749292E0,-3.708238678E0,-1.254675888E1,-3.805087280E-1,7.680047292E0,-1.291090488E0,1.812634826E0,-3.414908648E-1
7.698695292E0,-2.426903229E0,-1.111438751E1,-1.020577698E0,7.689993292E0,-1.154456854E0,1.284006953E0,-1.813825034E-2
7.708641292E0,-6.301895142E-1,-9.369765472E0,-1.624122620E0,7.699939292E0,-1.003224969E0,6.438362002E-1,2.367302626E-1
7.718586292E0,9.755213928E-1,-8.821306000E0,-2.174528046E0,7.709885292E0,-8.902209401E-1,-1.267132722E-2,3.716811240E-1
7.728532292E0,3.000959473E0,-8.927135925E0,-2.934946747E0,7.719830292E0,-8.875708580E-1,-5.559114218E-1,4.440639615E-1
7.738478292E0,5.325176239E0,-9.112001495E0,-3.650608521E0,7.729776292E0,-9.846644402E-1,-1.054135442E0,3.356639743E-1
7.748423292E0,5.753884735E0,-8.982820129E0,-3.714824982E0,7.739722292E0,-1.082793832E0,-1.341797113E0,1.553996503E-1
7.758369292E0,5.535638580E0,-8.222401428E0,-3.868704987E0,7.749667292E0,-1.173160195E0,-1.379460335E0,4.261109233E-2
7.768315292E0,4.752766571E0,-7.672594757E0,-3.072360992E0,7.759613292E0,-1.272063136E0,-1.433487296E0,-3.223811463E-2
7.778260292E0,4.366719360E0,-7.230414276E0,-2.105521545E0,7.769559292E0,-1.309281468E0,-1.585592389E0,-9.060859680E-2
7.788206292E0,3.893253937E0,-6.657256165E0,-8.479866028E-1,7.779504292E0,-1.228145361E0,-1.793503761E0,-2.054347843E-1
7.798152292E0,2.871478729E0,-6.326893158E0,-3.412902832E-2,7.789450292E0,-1.031176686E0,-1.859654188E0,-2.899958491E-1
7.808097292E0,1.933229828E0,-6.543792114E0,-7.734416199E-1,7.799396292E0,-8.878877163E-1,-1.664357662E0,-3.855673671E-1
7.818043292E0,1.141825562E0,-6.335724792E0,-1.419947205E0,7.809341292E0,-8.544248939E-1,-1.425105333E0,-3.768266141E-1
7.827989292E0,5.025050354E-1,-5.794450378E0,-1.419198761E0,7.819287292E0,-7.727071047E-1,-1.174218774E0,-4.860364497E-1
7.837934292E0,-4.228706360E-1,-5.808670807E0,-1.313069458E0,7.829233292E0,-6.430609822E-1,-9.137164950E-1,-5.731650591E-1
7.847880292E0,-6.682104492E-1,-5.821544037E0,-1.064735870E0,7.839178292E0,-4.788337350E-1,-7.464337945E-1,-6.032114029E-1
7.857826292E0,-6.192622375E-1,-5.773493958E0,-7.776329041E-1,7.849124292E0,-2.487409115E-1,-7.876609564E-1,-6.502321959E-1
7.867771292E0,-6.400689697E-1,-5.614524536E0,-6.331832886E-1,7.859070292E0,8.021630347E-3,-1.003639221E0,-7.027025819E-1
7.877717292E0,-8.113128662E-1,-5.545967102E0,-5.936654663E-1,7.869015292E0,2.664131224E-1,-1.249710441E0,-6.960082650E-1
7.887663292E0,-7.613168335E-1,-5.450166321E0,-7.488926697E-1,7.878961292E0,5.038155317E-1,-1.358009219E0,-5.987877250E-1
7.897609292E0,-4.477189636E-1,-5.284311218E0,-1.087638245E0,7.888907292E0,7.117461562E-1,-1.270838380E0,-4.934332669E-1
7.907554292E0,-2.594105530E-1,-5.331463165E0,-1.552870789E0,7.898853292E0,8.874074817E-1,-1.064155817E0,-3.988873065E-1
7.917500292E0,-1.381626892E-1,-5.489983521E0,-1.968855743E0,7.908798292E0,1.021376014E0,-8.279576898E-1,-2.920356095E-1
7.927446292E0,1.047821045E-1,-5.537434845E0,-2.423610077E0,7.918744292E0,1.115789056E0,-5.769624710E-1,-1.863571405E-1
7.937391292E0,2.847079468E-1,-5.585335236E0,-2.903362427E0,7.928690292E0,1.170210958E0,-3.579778671E-1,-1.136973947E-1
7.947337292E0,4.099974060E-1,-5.690865784E0,-3.158731384E0,7.938635292E0,1.167564392E0,-1.752000451E-1,-6.127547100E-2
7.957283292E0,6.180647278E-1,-5.863606567E0,-3.486849060E0,7.948581292E0,1.153617382E0,-6.034797058E-3,-2.532444149E-2
7.967228292E0,9.321116638E-1,-6.761589203E0,-3.996090088E0,7.958527292E0,1.149978638E0,8.086388558E-2,4.568342119E-2
7.977174417E0,1.856289825E0,-7.944878540E0,-4.318369904E0,7.968472292E0,1.125500321E0,1.441240162E-1,9.215383977E-2
7.987120417E0,2.464475098E0,-8.895102539E0,-5.368436279E0,7.978418417E0,1.018562675E0,4.374521226E-2,2.921535447E-2
7.997065417E0,1.874102783E0,-1.051488419E1,-5.610033875E0,7.988364417E0,7.835704684E-1,-4.239763319E-1,-8.811657876E-2
8.007011417E0,1.212328949E0,-1.171074738E1,-5.094954987E0,7.998309417E0,6.206097603E-1,-6.804866195E-1,-1.083089337E-1
8.016957417E0,5.641767883E-1,-1.208047852E1,-5.351820831E0,8.008255417E0,4.908773601E-1,-7.738718390E-1,-9.520233423E-2
8.026902417E0,-5.104385376E-1,-1.252759872E1,-4.678670654E0,8.018201417E0,3.377482593E-1,-8.684388399E-1,-3.136450052E-2
8.036848417E0,-1.303040314E0,-1.321362213E1,-4.142485657E0,8.028146417E0,1.898945570E-1,-8.434501290E-1,7.731634378E-2
8.046794417E0,-1.022373962E0,-1.333157684E1,-3.897594910E0,8.038092417E0,1.258908063E-1,-8.710697889E-1,1.753534228E-1
8.056740417E0,-7.725434875E-1,-1.276695099E1,-3.860322418E0,8.048038417E0,1.787522584E-1,-5.363839865E-1,2.262209505E-1
8.066685417E0,1.496887207E-3,-1.157003998E1,-5.812413025E0,8.057984417E0,2.023792863E-1,1.741340570E-2,2.357611954E-1
8.076631417E0,1.150208130E0,-1.026610153E1,-8.096064148E0,8.067929417E0,5.894937739E-2,4.716136456E-1,1.034244448E-1
8.086577417E0,1.551224213E0,-8.976084137E0,-9.479786682E0,8.077875417E0,-2.493727654E-1,7.764643431E-1,-8.837721497E-2
8.096522417E0,1.264869690E0,-7.725285187E0,-1.033855087E1,8.087821417E0,-4.827719331E-1,8.527968526E-1,-1.644661278E-1
8.106468417E0,2.917433167E-1,-7.403304749E0,-9.577832794E0,8.097766417E0,-8.953206539E-1,4.242524207E-1,-2.168659568E-1
8.116414417E0,-8.334667969E-1,-8.469088440E0,-5.488786011E0,8.107712417E0,-1.345770717E0,3.291941881E-1,-2.036388665E-1
8.126359417E0,7.200027466E-2,-1.127111160E1,-3.122806091E0,8.117658417E0,-1.462016344E0,7.992790639E-2,-3.247618675E-2
8.136305417E0,2.095791779E0,-1.515987488E1,-1.949845276E0,8.127603417E0,-1.258945107E0,-4.234953225E-1,5.462686345E-2
8.146251417E0,1.341210938E0,-1.979139359E1,9.337582397E-1,8.137549417E0,-1.068553925E0,-6.270806789E-1,7.778145373E-2
8.156196417E0,-4.085005188E-1,-2.113140701E1,3.779640198E0,8.147495417E0,-4.480375350E-1,-5.819045901E-1,3.661741912E-1
8.166142417E0,-9.883946228E-1,-1.795471298E1,1.846110992E0,8.157440417E0,9.443508089E-2,-4.361561537E-1,7.256036997E-1
8.176088417E0,-1.082848206E0,-1.435799240E1,-3.471281433E-1,8.167386417E0,1.371048242E-1,-1.797166467E-1,7.463697195E-1
8.186033417E0,-1.443298645E0,-1.253283783E1,-5.773493958E-1,8.177332417E0,-1.561175287E-2,-3.027468733E-2,6.038312316E-1
8.195979417E0,-6.481521606E-1,-1.040635986E1,8.349636841E-1,8.187277417E0,7.857630402E-2,8.489627391E-2,7.467461228E-1
8.205925417E0,9.895921326E-1,-8.311466217E0,1.496438141E0,8.197223417E0,1.051684991E-1,3.257568181E-1,8.932785392E-1
8.215870417E0,2.541564789E0,-7.672295380E0,1.975142670E0,8.207169417E0,9.345015138E-2,6.208258867E-1,8.860148787E-1
8.225816417E0,3.266507263E0,-7.856412506E0,2.565514984E0,8.217114417E0,1.457013637E-1,8.160312772E-1,8.141116500E-1
8.235762417E0,3.549119568E0,-7.917036438E0,2.137255554E0,8.227060417E0,3.297859430E-1,6.844235063E-1,7.493166327E-1
8.245708417E0,3.933520203E0,-8.002808075E0,1.259630585E0,8.237006417E0,4.573119581E-1,3.810647130E-1,6.835429668E-1
8.255653417E0,4.459226990E0,-8.293952637E0,6.337820435E-1,8.246952417E0,5.271720290E-1,-6.950621307E-2,6.081507802E-1
8.265599417E0,4.861290894E0,-8.716523895E0,5.766009521E-1,8.256897417E0,6.253049970E-1,-4.854496419E-1,4.625163674E-1
8.275545417E0,4.235442352E0,-9.477691040E0,9.270222473E-1,8.266843417E0,7.202228308E-1,-6.082493663E-1,2.576344311E-1
8.285490417E0,3.016676788E0,-1.005743546E1,1.088237000E0,8.276789417E0,8.298736811E-1,-4.600221217E-1,6.464367360E-2
8.295436417E0,1.616937561E0,-1.016191818E1,7.521858215E-1,8.286734417E0,9.285593629E-1,-1.961823851E-1,-1.417000741E-1
8.305382417E0,3.269201660E-1,-9.842781830E0,4.511618042E-1,8.296680417E0,1.016761422E0,9.151890129E-2,-3.209451735E-1
8.315327417E0,-5.301974487E-1,-9.080566864E0,1.808239746E-1,8.306626417E0,1.092922926E0,3.409097195E-1,-4.487040639E-1
8.325273417E0,-1.693727875E0,-8.687184906E0,-1.679507446E-1,8.316571417E0,1.172389507E0,5.335822701E-1,-5.419754386E-1
8.335219417E0,-3.246598663E0,-8.823850708E0,-8.770262146E-1,8.326517417E0,1.215966940E0,6.947451234E-1,-5.712512136E-1
8.345164417E0,-4.628524933E0,-8.690627747E0,-1.368753662E0,8.336463417E0,1.142571807E0,8.648079038E-1,-4.751304686E-1
8.355110417E0,-5.127736816E0,-8.097710724E0,-1.464853821E0,8.346408417E0,9.486976862E-1,1.164813280E0,-2.314650714E-1
8.365056417E0,-4.506528625E0,-7.213050385E0,-1.564995575E0,8.356354417E0,6.842058301E-1,1.470611572E0,3.467819840E-2
8.375001417E0,-3.044369202E0,-6.722370758E0,-1.274000702E0,8.366300417E0,4.189372659E-1,1.714524031E0,2.110490501E-1
8.384947417E0,-1.466051331E0,-7.033872986E0,-2.395019531E-1,8.376245417E0,2.344278693E-1,1.804976702E0,2.914685309E-1
8.394893417E0,-1.194515991E-1,-7.962990875E0,1.659598846E0,8.386191417E0,2.062439024E-1,1.864950657E0,3.353222609E-1
8.404838417E0,1.032852173E0,-8.948541412E0,2.609523468E0,8.396137417E0,3.457139432E-1,1.991746187E0,3.676958978E-1
8.414784417E0,2.110012207E0,-9.800270233E0,2.092348938E0,8.406082417E0,5.479279160E-1,1.906624794E0,3.634726107E-1
8.424730417E0,2.729873199E0,-1.041085052E1,1.261875916E0,8.416028417E0,7.389740348E-1,1.681450009E0,3.145966828E-1
8.434675417E0,2.778222656E0,-1.048225204E1,-2.215393066E-2,8.425974417E0,8.551718593E-1,1.551383615E0,2.855280936E-1
8.444621417E0,2.401306458E0,-1.011431717E1,-1.396595764E0,8.435919417E0,8.366982937E-1,1.524656415E0,3.193952441E-1
8.454567417E0,1.867366791E0,-9.512418823E0,-2.135159912E0,8.445865417E0,7.229410410E-1,1.468593478E0,3.873877823E-1
8.464513417E0,1.307680664E0,-8.924740906E0,-2.057471466E0,8.455811417E0,5.834691525E-1,1.348644376E0,4.857705534E-1
8.474458417E0,9.300160217E-1,-8.534801788E0,-1.608554993E0,8.465757417E0,4.957874119E-1,1.186322331E0,6.095421910E-1
8.484404417E0,9.196875000E-1,-8.340356140E0,-1.113235016E0,8.475702417E0,4.718639553E-1,1.065637708E0,7.374194264E-1
8.494350417E0,1.215771790E0,-8.131989441E0,-6.649172974E-1,8.485648417E0,4.649124146E-1,1.013595819E0,8.347035050E-1
8.504295417E0,1.591640167E0,-7.967481537E0,-3.055146790E-1,8.495594417E0,4.916995466E-1,1.026794195E0,9.091210365E-1
8.514241417E0,2.182311859E0,-7.914641418E0,-5.760021973E-1,8.505539417E0,5.423413515E-1,1.026736617E0,9.416730404E-1
8.524187417E0,2.836900635E0,-7.974666595E0,-1.327589264E0,8.515485417E0,5.769142509E-1,9.225319624E-1,9.063392878E-1
8.534132417E0,3.226240997E0,-8.070617065E0,-2.290237427E0,8.525431417E0,5.686451793E-1,8.228276372E-1,8.414748907E-1
8.544078417E0,3.426374817E0,-8.389903107E0,-3.166215820E0,8.535376417E0,4.469499290E-1,7.221974730E-1,7.658964992E-1
8.554024417E0,3.601809998E0,-8.492290192E0,-3.403921509E0,8.545322417E0,2.746949196E-1,6.314846873E-1,6.825052500E-1
8.563969417E0,3.655847626E0,-8.118517456E0,-2.858156433E0,8.555268417E0,1.458652765E-1,6.007427573E-1,5.915774703E-1
8.573915417E0,3.477568359E0,-7.736212463E0,-2.030377808E0,8.565213417E0,7.087878883E-2,6.050879955E-1,4.861268997E-1
8.583861417E0,2.835553436E0,-7.995922394E0,-1.333876190E0,8.575159417E0,1.297429055E-1,5.939935446E-1,3.434610963E-1
8.593806417E0,1.657203827E0,-8.628506927E0,-1.274749146E0,8.585105417E0,2.317150384E-1,5.407658815E-1,2.271003574E-1
8.603752417E0,7.566764832E-1,-9.072034607E0,-1.610351257E0,8.595050417E0,3.127715588E-1,4.376474917E-1,1.844471693E-1
8.613698417E0,6.530918884E-1,-9.108558655E0,-1.361867981E0,8.604996417E0,3.295625746E-1,3.293409646E-1,2.141361535E-1
8.623643417E0,1.257534943E0,-9.042845306E0,-5.137316895E-1,8.614942417E0,3.486515880E-1,3.891017735E-1,2.572396696E-1
8.633589417E0,2.390079803E0,-9.500743103E0,-9.451345825E-1,8.624887417E0,3.937203586E-1,3.707596064E-1,2.729489803E-1
8.643535417E0,3.722010040E0,-1.020008881E1,-1.491947479E0,8.634833417E0,4.319039583E-1,1.095162779E-1,2.307725102E-1
8.653480417E0,4.680616608E0,-1.084689377E1,-1.527274017E0,8.644779417E0,4.761287570E-1,-7.636030018E-2,1.518671066E-1
8.663426417E0,5.354664917E0,-1.139939484E1,-1.840572510E0,8.654724417E0,5.099666715E-1,-1.528838426E-1,7.771805674E-2
8.673372417E0,5.476511536E0,-1.181493073E1,-1.805545349E0,8.664670417E0,4.942346215E-1,-1.412602514E-1,-6.416172720E-3
8.683317417E0,5.273234253E0,-1.212299011E1,-1.064885559E0,8.674616417E0,4.630929530E-1,-1.028598621E-1,-1.077284142E-1
8.693263417E0,5.142406311E0,-1.306078995E1,-6.197113037E-1,8.684561417E0,5.243340731E-1,-1.861282885E-1,-2.670718431E-1
8.703209417E0,4.588108978E0,-1.440694061E1,-1.627864838E0,8.694507417E0,6.242375374E-1,-3.820354640E-1,-4.869586825E-1
8.713154417E0,2.961591339E0,-1.497680557E1,-2.611020355E0,8.704453417E0,4.692217708E-1,-6.069074273E-1,-7.131056190E-1
8.723100417E0,4.052073669E-1,-1.465602264E1,-2.707270203E0,8.714398417E0,1.669873297E-1,-7.007566690E-1,-9.129124880E-1
8.733046417E0,-1.366957397E0,-1.429212936E1,-1.372495880E0,8.724344417E0,-1.736068577E-1,-8.535919785E-1,-9.699998498E-1
8.742991417E0,-1.731898499E0,-1.346958984E1,1.706451416E-2,8.734290417E0,-4.770676494E-1,-9.741855264E-1,-8.566884995E-1
8.752937417E0,-1.439706116E0,-1.242236755E1,1.127904510E0,8.744235417E0,-7.582293153E-1,-1.176953435E0,-7.231922150E-1
8.762883417E0,-1.225800934E0,-1.140343643E1,2.240091705E0,8.754181417E0,-9.585799575E-1,-1.347461343E0,-6.445754170E-1
8.772829417E0,-1.657054138E0,-1.062490540E1,2.439926147E0,8.764127417E0,-1.082902670E0,-1.280596018E0,-6.242221594E-1
8.782774417E0,-2.687810669E0,-9.926158447E0,9.409432983E-1,8.774073417E0,-1.251534581E0,-1.081940532E0,-6.104216576E-1
8.792720417E0,-3.152594147E0,-1.038465500E1,-2.075733490E0,8.784018417E0,-1.593471169E0,-1.039486289E0,-5.863054991E-1
8.802666417E0,-2.908751221E0,-1.126886627E1,-2.167043610E0,8.793964417E0,-2.016715288E0,-1.084293008E0,-6.282222867E-1
8.812611417E0,-2.528990936E0,-1.290646088E1,-2.963836670E-1,8.803910417E0,-2.072056293E0,-1.061922669E0,-7.322155237E-1
8.822557417E0,-2.595153351E0,-1.427491516E1,1.039588165E0,8.813855417E0,-2.140677691E0,-6.634456515E-1,-8.495540023E-1
8.832503417E0,-3.772604828E0,-1.518008286E1,2.646496582E0,8.823801417E0,-2.176012278E0,2.142066360E-1,-8.949438930E-1
8.842448417E0,-4.846022644E0,-1.534953049E1,3.178190918E0,8.833747417E0,-1.959111571E0,1.204728961E0,-7.472231388E-1
8.852394417E0,-5.015919342E0,-1.452294937E1,2.554887085E0,8.843692417E0,-1.575250268E0,1.769657493E0,-5.238628387E-1
8.862340417E0,-4.548441467E0,-1.266336639E1,5.956114197E-1,8.853638417E0,-1.177805185E0,1.863870263E0,-3.080593944E-1
8.872285417E0,-3.102149048E0,-1.072759186E1,-1.665736084E0,8.863584417E0,-9.800784588E-1,1.642260194E0,-1.249651164E-1
8.882231417E0,-1.085841980E0,-9.461075592E0,-2.887944489E0,8.873529417E0,-9.655839205E-1,1.127641320E0,1.096368395E-2
8.892177417E0,7.744894409E-1,-9.376950531E0,-2.947520599E0,8.883475417E0,-1.020460486E0,5.370500088E-1,7.654783130E-2
8.902122417E0,2.956202545E0,-9.728269958E0,-3.343746643E0,8.893421417E0,-1.090339661E0,8.722133934E-2,9.732794017E-2
8.912068417E0,4.733007660E0,-9.743837585E0,-3.158432007E0,8.903366417E0,-1.102517605E0,-3.162761331E-1,1.638764702E-2
8.922014417E0,4.793631592E0,-9.873468018E0,-3.247945862E0,8.913312417E0,-1.116919518E0,-4.564681351E-1,-9.321154654E-2
8.931959417E0,4.138893127E0,-9.715845795E0,-3.253184967E0,8.923258417E0,-1.212575793E0,-4.078646004E-1,-1.220752224E-1
8.941905417E0,3.114872589E0,-9.502689056E0,-2.828817444E0,8.933203417E0,-1.261393666E0,-4.541045427E-1,-9.035217762E-2
8.951851417E0,2.986888733E0,-8.592282257E0,-2.702779541E0,8.943149417E0,-1.227396607E0,-7.448491454E-1,-5.139146000E-2
8.961796417E0,2.856509857E0,-7.662565613E0,-2.086660767E0,8.953095417E0,-1.156327963E0,-1.071005225E0,-1.173092201E-1
8.971742417E0,2.524200897E0,-7.058571625E0,-1.477876740E0,8.963040417E0,-1.069664001E0,-1.161796570E0,-1.558726430E-1
8.981687792E0,2.338886261E0,-6.287375336E0,-9.562115479E-1,8.972986417E0,-9.958395362E-1,-1.059097052E0,-2.003069520E-1
8.991632792E0,1.971999207E0,-5.384153595E0,-5.361849976E-1,8.982931792E0,-8.913838267E-1,-8.724213839E-1,-3.242354095E-1
9.001578792E0,1.115929413E0,-4.683610382E0,-8.457412720E-1,8.992876792E0,-7.586122155E-1,-7.684962749E-1,-4.510181248E-1
9.011524792E0,2.754272461E-2,-4.080813904E0,-9.346563721E-1,9.002822792E0,-6.068173647E-1,-7.809131742E-1,-5.086668134E-1
9.021469792E0,-5.900729370E-1,-3.454516296E0,-8.018824768E-1,9.012768792E0,-4.357936978E-1,-8.539929986E-1,-5.233935714E-1
9.031415792E0,-8.017327881E-1,-3.102298737E0,-6.819818115E-1,9.022713792E0,-2.431131154E-1,-1.073570251E0,-5.383298397E-1
9.041361792E0,-7.840695190E-1,-3.163820801E0,-6.563850403E-1,9.032659792E0,-3.934215009E-2,-1.323845863E0,-5.056283474E-1
9.051307792E0,-4.525090027E-1,-3.664679260E0,-6.828799438E-1,9.042605792E0,1.791243404E-1,-1.484492302E0,-4.232280850E-1
9.061252792E0,1.272354126E-2,-4.433330841E0,-8.834628296E-1,9.052551792E0,4.203249812E-1,-1.486308575E0,-3.148446083E-1
9.071198792E0,3.637435913E-1,-5.092859344E0,-1.376088409E0,9.062496792E0,6.410844326E-1,-1.358274102E0,-2.082362473E-1
9.081144792E0,4.496649170E-1,-5.764362946E0,-1.912273407E0,9.072442792E0,8.334426880E-1,-1.207636476E0,-1.139992177E-1
9.091089792E0,5.827381897E-1,-6.477480011E0,-2.453098755E0,9.082388792E0,9.935511947E-1,-1.030889750E0,-1.413644291E-2
9.101035792E0,8.699908447E-1,-7.255561981E0,-3.034938812E0,9.092333792E0,1.098453164E0,-8.892493248E-1,5.919955298E-2
9.110981792E0,1.269809418E0,-7.886499939E0,-3.474125519E0,9.102279792E0,1.171708703E0,-7.758826017E-1,7.929203659E-2
9.120926792E0,1.574276276E0,-8.398435364E0,-3.978127441E0,9.112225792E0,1.192834735E0,-6.306161880E-1,4.521662369E-3
9.130872792E0,1.466201019E0,-9.085356903E0,-4.255201263E0,9.122170792E0,1.166618943E0,-3.882480860E-1,-9.902698547E-2
9.140818792E0,1.610650635E0,-9.586065674E0,-5.050647125E0,9.132116792E0,1.107537031E0,-7.561641932E-2,-1.840915382E-1
9.150763792E0,1.420246582E0,-1.066981201E1,-6.934479675E0,9.142062792E0,9.391058087E-1,-1.492836773E-1,-2.535713911E-1
9.160709792E0,4.336482239E-1,-1.185355042E1,-6.856342163E0,9.152007792E0,6.541856527E-1,-6.192583442E-1,-2.917160988E-1
9.170655792E0,-3.773652649E-1,-1.195204559E1,-6.316414948E0,9.161953792E0,4.782309830E-1,-7.401421070E-1,-2.302414477E-1
9.180600792E0,-1.624122620E0,-1.270662643E1,-6.027515717E0,9.171899792E0,3.206200302E-1,-6.245734096E-1,-1.356952339E-1
9.190546792E0,-3.192261658E0,-1.441143127E1,-5.424868927E0,9.181844792E0,1.017860770E-1,-5.011283159E-1,-3.319568187E-2
9.200492792E0,-3.993545380E0,-1.523756332E1,-4.355792084E0,9.191790792E0,-5.682966486E-2,-5.560962558E-1,7.108518481E-2
9.210437792E0,-3.756737823E0,-1.416354675E1,-3.804189148E0,9.201736792E0,-6.526877731E-2,-4.417038560E-1,1.871805489E-1
9.220383792E0,-2.302511902E0,-1.209874054E1,-5.241200867E0,9.211681792E0,-4.237677902E-2,-5.059761181E-2,2.408626825E-1
9.230329792E0,-1.276844788E-1,-1.014141083E1,-7.591912537E0,9.221627792E0,-1.489186883E-1,5.292193294E-1,2.290067673E-1
9.240274792E0,1.854942627E0,-7.848778381E0,-9.207951965E0,9.231573792E0,-2.611181736E-1,1.050819874E0,1.747898757E-1
9.250220792E0,2.811004486E0,-6.120771790E0,-1.000893631E1,9.241518792E0,-3.748710155E-1,1.245739460E0,1.462358683E-1
9.260166792E0,2.038760376E0,-6.175857239E0,-8.978030090E0,9.251464792E0,-7.583537102E-1,9.333551526E-1,2.300474048E-2
9.270111792E0,-2.109114075E-1,-9.225315857E0,-5.939798126E0,9.261410792E0,-1.352125287E0,6.557796001E-1,-1.093086749E-1
9.280057792E0,3.677851868E-1,-1.443373489E1,-2.589315491E0,9.271355792E0,-1.672633767E0,3.202039897E-1,4.522443935E-2
9.290003792E0,4.211342468E0,-1.786819290E1,-6.885681152E-3,9.281301792E0,-1.152258992E0,-5.493196845E-1,2.704318166E-1
9.299948792E0,3.908821564E0,-1.896092056E1,1.602717133E0,9.291247792E0,-3.626876175E-1,-8.097392917E-1,4.921700656E-1
9.309894792E0,1.666334839E0,-1.582928284E1,1.639989624E0,9.301192792E0,1.431082040E-1,-5.146909952E-1,6.547967792E-1
9.319840792E0,-1.276994476E0,-1.222702377E1,4.912783813E-1,9.311138792E0,3.109126389E-1,-8.620754629E-2,6.387386918E-1
9.329785792E0,-4.445455627E0,-1.200279007E1,-1.792971497E0,9.321084792E0,1.967639476E-1,1.560589671E-1,5.745370984E-1
9.339731792E0,-4.858746185E0,-1.224124420E1,-2.200873260E0,9.331029792E0,9.060794115E-2,-5.131286383E-2,7.774164677E-1
9.349677792E0,-1.721420288E0,-9.804910583E0,-5.084925842E-1,9.340975792E0,-1.571324468E-2,-2.403655350E-1,9.942413568E-1
9.359622792E0,1.040635986E0,-7.509434052E0,2.074386292E0,9.350921792E0,4.388194066E-5,-5.213465169E-2,1.095537305E0
9.369568792E0,2.919528809E0,-6.883735199E0,3.159779205E0,9.360866792E0,6.717309356E-2,4.329212904E-1,1.074344158E0
9.379514792E0,3.732338562E0,-7.308252411E0,3.193608856E0,9.370812792E0,1.826626658E-1,7.814941406E-1,1.001754403E0
9.389459792E0,4.353995819E0,-7.655380554E0,3.050207062E0,9.380758792E0,3.605780303E-1,8.639370203E-1,8.771836162E-1
9.399405792E0,4.988077240E0,-8.051756287E0,2.533631287E0,9.390703792E0,5.598626137E-1,5.887906551E-1,6.866818070E-1
9.409351792E0,5.216801605E0,-8.368048553E0,1.811981964E0,9.400649792E0,7.274860740E-1,1.662498862E-1,5.306209922E-1
9.419296792E0,5.921835480E0,-8.272247772E0,1.060843964E0,9.410595792E0,8.542078137E-1,-2.600180805E-1,3.490338922E-1
9.429242792E0,6.357878723E0,-8.222551117E0,7.830216980E-1,9.420540792E0,9.863481522E-1,-6.009392738E-1,5.570042878E-2
9.439188792E0,5.551804962E0,-8.591982880E0,7.479945374E-1,9.430486792E0,1.109217405E0,-7.392987013E-1,-2.346184850E-1
9.449133792E0,4.149820404E0,-9.012608185E0,5.833369446E-1,9.440432792E0,1.208292723E0,-5.803307295E-1,-4.943042099E-1
9.459079792E0,2.559377747E0,-9.359736328E0,-1.954934692E-1,9.450377792E0,1.277233958E0,-2.656039298E-1,-7.567952275E-1
9.469025792E0,4.592449951E-1,-9.566905518E0,-1.330283661E0,9.460323792E0,1.263981462E0,-8.615135401E-2,-9.673829675E-1
9.478970792E0,-1.910327454E0,-9.952054596E0,-1.886526947E0,9.470269792E0,1.185863495E0,-8.087136596E-2,-1.038448334E0
9.488916792E0,-4.130360870E0,-9.988129578E0,-1.976789246E0,9.480214792E0,1.101721883E0,-8.209703863E-2,-9.090254307E-1
9.498862792E0,-5.683830414E0,-9.506431274E0,-1.936223602E0,9.490160792E0,1.017608523E0,-7.513770834E-5,-6.246277690E-1
9.508807792E0,-6.270909576E0,-8.778944092E0,-1.970502319E0,9.500106792E0,8.690993786E-1,1.441981345E-1,-2.602044642E-1
9.518753792E0,-5.357359314E0,-7.866591339E0,-1.628164215E0,9.510051792E0,6.601192355E-1,2.842503190E-1,8.535611629E-2
9.528699792E0,-3.007695465E0,-7.131619720E0,-9.704319763E-1,9.519997792E0,4.667934775E-1,4.398056567E-1,2.966204584E-1
9.538644792E0,-5.279521179E-1,-7.121141510E0,3.125500488E-1,9.529943792E0,3.450017869E-1,6.216843724E-1,3.449027836E-1
9.548590792E0,7.885601807E-1,-7.752678223E0,2.064357147E0,9.539888792E0,3.932012022E-1,8.000181913E-1,2.962075770E-1
9.558536792E0,1.439855804E0,-8.600066071E0,2.680625610E0,9.549834792E0,5.786523223E-1,9.603756666E-1,2.612709105E-1
9.568481792E0,2.612367554E0,-9.556876373E0,1.962718506E0,9.559780792E0,8.343559504E-1,8.990797997E-1,2.006586790E-1
9.578427792E0,3.735931091E0,-1.051683014E1,8.464897156E-1,9.569725792E0,1.046169639E0,7.338085771E-1,7.892293483E-2
9.588373792E0,3.804189148E0,-1.070932983E1,-3.835025024E-1,9.579671792E0,1.164607167E0,6.094024181E-1,-1.070859656E-2
9.598318792E0,3.080743561E0,-1.036968613E1,-1.766626282E0,9.589617792E0,1.165240765E0,4.971744120E-1,-1.430652756E-2
9.608264792E0,2.080373840E0,-9.955497437E0,-2.713257751E0,9.599562792E0,1.036625981E0,3.424820900E-1,4.471758008E-2
9.618210792E0,1.171912994E0,-9.542955322E0,-2.335443420E0,9.609508792E0,8.464800715E-1,1.625442654E-1,1.419677138E-1
9.628155792E0,6.225553894E-1,-9.209448853E0,-1.033450928E0,9.619454792E0,7.255271077E-1,4.024666548E-2,2.498737872E-1
9.638101792E0,4.851411438E-1,-8.759484558E0,9.879455566E-3,9.629399792E0,7.130177021E-1,-1.258352492E-2,3.507298231E-1
9.648047792E0,5.641767883E-1,-8.352181549E0,4.414320374E-1,9.639345792E0,7.656981945E-1,-5.282164738E-2,4.108378887E-1
9.657993792E0,6.611750793E-1,-8.340655518E0,3.164419556E-1,9.649291792E0,8.420038819E-1,-6.510201842E-2,4.412120283E-1
9.667938792E0,7.432044983E-1,-8.634793854E0,-2.954855347E-1,9.659237792E0,8.933328390E-1,-5.055459589E-2,4.575731158E-1
9.677884792E0,9.538165283E-1,-9.166039124E0,-1.336720276E0,9.669182792E0,8.837843537E-1,-4.895243794E-2,4.691498876E-1
9.687829792E0,1.133592682E0,-9.674082642E0,-2.309696960E0,9.679128792E0,7.696373463E-1,-3.356238455E-2,4.717052877E-1
9.697775792E0,1.219514008E0,-1.001761826E1,-2.692001953E0,9.689073792E0,5.596601367E-1,1.699906029E-2,4.727258086E-1
9.707721792E0,1.530866547E0,-1.022972717E1,-2.425705719E0,9.699019792E0,3.110809624E-1,8.376757801E-2,4.656879008E-1
9.717666792E0,2.017803955E0,-1.012584320E1,-1.570983124E0,9.708965792E0,1.461031884E-1,1.090044975E-1,4.295914173E-1
9.727612792E0,2.435884552E0,-9.615105286E0,-2.667453003E-1,9.718910792E0,1.307793558E-1,1.816877425E-1,3.865656555E-1
9.737558792E0,2.536175995E0,-9.418114929E0,1.172062683E-1,9.728856792E0,2.384906411E-1,3.250662386E-1,2.991388738E-1
9.747504792E0,2.048340454E0,-9.735155640E0,-5.342390442E-1,9.738802792E0,3.266781569E-1,4.071682394E-1,1.765376925E-1
9.757449792E0,1.377585297E0,-9.843979340E0,-9.366023254E-1,9.748748792E0,3.290606439E-1,4.650712311E-1,1.071008295E-1
9.767395792E0,1.384171600E0,-9.651779022E0,-1.151705017E0,9.758693792E0,2.765939534E-1,5.131848454E-1,1.130231693E-1
9.777341792E0,2.411335602E0,-9.543404388E0,-1.238374786E0,9.768639792E0,2.140882313E-1,4.372349083E-1,1.378928423E-1
9.787286792E0,3.802841949E0,-9.745184784E0,-9.243278503E-1,9.778585792E0,1.863621324E-1,2.654563189E-1,1.328757852E-1
9.797232792E0,4.859045563E0,-1.008078690E1,-6.827302551E-1,9.788530792E0,1.964248866E-1,1.725844294E-1,1.131779850E-1
9.807178792E0,5.366190948E0,-1.047192352E1,-7.578739929E-1,9.798476792E0,2.216604948E-1,1.007167399E-1,6.905209273E-2
9.817123792E0,5.073399811E0,-1.095826218E1,-1.048120422E0,9.808422792E0,2.567047477E-1,1.826500520E-2,2.030213177E-2
9.827069792E0,4.152514801E0,-1.135703293E1,-1.461410980E0,9.818367792E0,2.800084054E-1,-6.806757301E-2,-9.620165452E-3
9.837015792E0,3.111729126E0,-1.142783569E1,-1.822460175E0,9.828313792E0,2.914709151E-1,-1.165264547E-1,-2.277857810E-2
9.846960792E0,2.726430359E0,-1.134296219E1,-1.580862579E0,9.838259792E0,2.455537170E-1,-1.093983501E-1,-1.928640716E-2
9.856906792E0,3.535946960E0,-1.161195282E1,-5.343887329E-1,9.848204792E0,2.231312394E-1,-8.230867237E-2,-5.202970654E-2
9.866852792E0,3.436553650E0,-1.217163895E1,-1.503473511E0,9.858150792E0,3.032940328E-1,-1.810640246E-1,-1.908091307E-1
9.876797792E0,1.356030121E0,-1.271710464E1,-3.427123260E0,9.868096792E0,9.606947005E-2,-6.366754770E-1,-4.003729820E-1
9.886743792E0,-8.084687805E-1,-1.276365784E1,-1.856289825E0,9.878041792E0,-3.243590891E-1,-6.600177288E-1,-5.406439900E-1
9.896689792E0,-1.461261292E0,-1.207508972E1,-1.272354126E-2,9.887987792E0,-6.599695683E-1,-5.726487637E-1,-5.099678040E-1
9.906634792E0,-8.496331787E-1,-1.130104935E1,2.019749908E0,9.897933792E0,-8.884960413E-1,-8.561782837E-1,-4.666337073E-1
9.916580792E0,-6.634204102E-1,-1.065813629E1,3.597019958E0,9.907878792E0,-9.309476018E-1,-1.072987318E0,-4.596293271E-1
9.926526792E0,-1.623823242E0,-1.037507492E1,2.572250977E0,9.917824792E0,-8.891977072E-1,-1.010736465E0,-4.859433770E-1
9.936471792E0,-2.521805878E0,-1.036878799E1,-3.261717224E-1,9.927770792E0,-1.104079247E0,-8.242867589E-1,-5.242601633E-1
9.946417792E0,-2.738854523E0,-1.193947174E1,-1.722468109E0,9.937715792E0,-1.488937736E0,-8.948834538E-1,-6.076833010E-1
9.956363792E0,-2.616259460E0,-1.355865463E1,-1.097517700E0,9.947661792E0,-1.867454410E0,-9.152289629E-1,-7.371896505E-1
9.966308792E0,-2.111509094E0,-1.352198090E1,4.046086121E-1,9.957607792E0,-2.116440773E0,-5.829383731E-1,-8.535145521E-1
9.976254792E0,-2.054328003E0,-1.313174240E1,1.215023346E0,9.967552792E0,-2.136671305E0,-1.952775121E-1,-9.799153805E-1
9.986200708E0,-2.780318298E0,-1.312874863E1,1.496438141E0,9.977498792E0,-2.043951035E0,2.927013636E-1,-1.018048525E0
9.996145708E0,-3.399281158E0,-1.308788361E1,1.734143829E0,9.987444708E0,-1.832403421E0,6.959074140E-1,-9.637888670E-1
1.000609171E1,-4.243076477E0,-1.294044022E1,1.502276001E0,9.997389708E0,-1.545774698E0,1.016327739E0,-8.353430033E-1
1.001603771E1,-4.371210022E0,-1.219439163E1,2.290237427E-1,1.000733571E1,-1.296141744E0,1.229314327E0,-6.415596604E-1
1.002598271E1,-3.190315704E0,-1.112306946E1,-1.277593231E0,1.001728171E1,-1.164375424E0,1.181797981E0,-5.057396889E-1
1.003592871E1,-1.935175781E0,-1.055889267E1,-1.605710907E0,1.002722671E1,-1.150009513E0,9.956502914E-1,-3.894274533E-1
1.004587471E1,-7.083270264E-1,-9.955347748E0,-1.901046753E0,1.003717271E1,-1.158985853E0,7.628399730E-1,-2.432975918E-1
1.005581971E1,6.262976074E-1,-9.495204620E0,-2.238295441E0,1.004711871E1,-1.172933340E0,3.938339651E-1,-8.076273650E-2
